Frame, Time_def, Emg1, Emg2, Emg3, Emg4, AccX, AccY, AccZ
1682, 0.00651147, -1, -3, 0, 3, -0.243652, -0.0483398, 1.03711
1683, 0.00533967, 0, 0, 1, 4, -0.240234, -0.0498047, 1.03076
1684, 0.005163, -1, 0, 4, -3, -0.240234, -0.0498047, 1.03076
1685, 0.00507613, 0, 0, -3, -3, -0.240234, -0.0498047, 1.03076
1686, 0.00489359, 0, 0, -3, -3, -0.240234, -0.0498047, 1.03076
1687, 0.00503691, 0, 0, -3, -3, -0.241699, -0.043457, 1.02637
1688, 0.00490312, -1, -3, 1, 2, -0.241699, -0.043457, 1.02637
1689, 0.00508932, -1, -3, 1, 2, -0.241699, -0.043457, 1.02637
1690, 0.00493428, 0, -1, 0, -3, -0.241699, -0.0454102, 1.03564
1691, 0.00508822, -1, 0, 0, 0, -0.241699, -0.0454102, 1.03564
1692, 0.00509335, -1, 0, 0, 0, -0.241699, -0.0454102, 1.03564
1693, 0.00488663, -1, 0, 0, 0, -0.241699, -0.0454102, 1.03564
1694, 0.00497423, 0, -1, -1, -3, -0.241699, -0.0454102, 1.03564
1695, 0.00494088, 0, 0, 0, -2, -0.251465, -0.046875, 1.03223
1696, 0.00511095, -1, -1, -6, 0, -0.251465, -0.046875, 1.03223
1697, 0.00502958, -1, 1, 0, -6, -0.251465, -0.046875, 1.03223
1698, 0.00501235, -1, 1, 0, -6, -0.251465, -0.046875, 1.03223
1699, 0.00494601, -1, 1, 0, -6, -0.244141, -0.0488281, 1.03516
1700, 0.00495554, 0, 1, -1, 0, -0.244141, -0.0488281, 1.03516
1701, 0.00499842, 0, 1, -1, 0, -0.244141, -0.0488281, 1.03516
1702, 0.00508492, 0, 0, 0, 0, -0.243164, -0.0429688, 1.03857
1703, 0.00497643, 0, 0, 0, 1, -0.243164, -0.0429688, 1.03857
1704, 0.00504167, 0, 0, 0, 1, -0.243164, -0.0429688, 1.03857
1705, 0.0049757, 0, 0, 0, 1, -0.243164, -0.0429688, 1.03857
1706, 0.0049735, 0, 0, 0, 1, -0.243164, -0.0429688, 1.03857
1707, 0.0048793, 0, 0, 1, 3, -0.241699, -0.050293, 1.03418
1708, 0.00511608, 0, 1, -4, 1, -0.241699, -0.050293, 1.03418
1709, 0.00499072, -1, -1, 2, 3, -0.241699, -0.050293, 1.03418
1710, 0.00505707, -1, -1, 2, 3, -0.241699, -0.050293, 1.03418
1711, 0.00501418, -1, -1, 2, 3, -0.239258, -0.0493164, 1.03613
1712, 0.00496947, 0, 1, 2, 2, -0.239258, -0.0493164, 1.03613
1713, 0.00498339, 0, 1, 2, 2, -0.239258, -0.0493164, 1.03613
1714, 0.00499512, -1, -1, 0, 0, -0.23877, -0.0498047, 1.03369
1715, 0.00501675, -2, 0, -1, -4, -0.23877, -0.0498047, 1.03369
1716, 0.00500355, -2, 0, -1, -4, -0.23877, -0.0498047, 1.03369
1717, 0.00492218, -2, 0, -1, -4, -0.23877, -0.0498047, 1.03369
1718, 0.00515676, -2, 0, -1, -4, -0.23877, -0.0498047, 1.03369
1719, 0.00478143, 1, -2, -2, -3, -0.235352, -0.0507812, 1.03271
1720, 0.00513514, 0, -1, -3, -2, -0.235352, -0.0507812, 1.03271
1721, 0.00501968, 0, -2, -1, 0, -0.235352, -0.0507812, 1.03271
1722, 0.00501382, 0, -2, -1, 0, -0.235352, -0.0507812, 1.03271
1723, 0.00493391, 0, -2, -1, 0, -0.22998, -0.043457, 1.04297
1724, 0.00503471, 0, -3, -2, -6, -0.22998, -0.043457, 1.04297
1725, 0.00498229, 0, -3, -2, -6, -0.22998, -0.043457, 1.04297
1726, 0.00502371, 0, 0, 4, 9, -0.23291, -0.0517578, 1.04443
1727, 0.00493318, -1, 0, 2, -1, -0.23291, -0.0517578, 1.04443
1728, 0.00516666, -1, 0, 2, -1, -0.23291, -0.0517578, 1.04443
1729, 0.00486097, -1, 0, 2, -1, -0.23291, -0.0517578, 1.04443
1730, 0.00502445, -1, -1, -6, -10, -0.23291, -0.0517578, 1.04443
1731, 0.00490569, -1, -1, -6, -10, -0.242188, -0.046875, 1.04443
1732, 0.00507869, -1, 0, 2, 4, -0.242188, -0.046875, 1.04443
1733, 0.00498816, -2, -1, -4, -1, -0.242188, -0.046875, 1.04443
1734, 0.00495151, -2, -1, -4, -1, -0.242188, -0.046875, 1.04443
1735, 0.00508456, -2, -1, -4, -1, -0.241699, -0.0419922, 1.03369
1736, 0.00501162, 0, -3, -1, 0, -0.241699, -0.0419922, 1.03369
1737, 0.00498046, 0, -3, -1, 0, -0.241699, -0.0419922, 1.03369
1738, 0.00496983, 0, -2, -8, -4, -0.235352, -0.043457, 1.03906
1739, 0.00500869, 1, 0, -5, -2, -0.235352, -0.043457, 1.03906
1740, 0.00495517, 1, 0, -5, -2, -0.235352, -0.043457, 1.03906
1741, 0.00503251, 1, 0, -5, -2, -0.235352, -0.043457, 1.03906
1742, 0.0049779, 1, -1, 2, -1, -0.235352, -0.043457, 1.03906
1743, 0.00492841, 1, -1, 2, -1, -0.227051, -0.0375977, 1.03418
1744, 0.00507063, -3, 0, 0, 1, -0.227051, -0.0375977, 1.03418
1745, 0.00511205, 0, 2, 0, -2, -0.227051, -0.0375977, 1.03418
1746, 0.00492548, 0, 2, 0, -2, -0.227051, -0.0375977, 1.03418
1747, 0.00503984, 0, 2, 0, -2, -0.227051, -0.0375977, 1.03418
1748, 0.00501345, 0, 2, 0, -2, -0.228027, -0.0385742, 1.04785
1749, 0.00495847, -1, -1, -1, 8, -0.228027, -0.0385742, 1.04785
1750, 0.00490569, -1, 0, 0, 0, -0.23291, -0.0375977, 1.05273
1751, 0.00515017, 1, 0, 1, -2, -0.23291, -0.0375977, 1.05273
1752, 0.00493208, 1, 0, 1, -2, -0.23291, -0.0375977, 1.05273
1753, 0.00499182, 1, 0, 1, -2, -0.23291, -0.0375977, 1.05273
1754, 0.00501968, -1, -4, 2, 5, -0.23291, -0.0375977, 1.05273
1755, 0.00485291, -2, -5, 0, 1, -0.235352, -0.019043, 1.07764
1756, 0.00516043, 0, -2, -4, -6, -0.235352, -0.019043, 1.07764
1757, 0.00497826, 0, -2, -4, -6, -0.235352, -0.019043, 1.07764
1758, 0.00499989, 0, -2, -4, -6, -0.235352, -0.019043, 1.07764
1759, 0.00501418, -1, -1, 0, 3, -0.220703, 0.00341797, 1.10645
1760, 0.00499842, 0, 0, 1, 0, -0.220703, 0.00341797, 1.10645
1761, 0.00497863, 0, 0, 1, 0, -0.220703, 0.00341797, 1.10645
1762, 0.00501858, -3, -6, -5, -3, -0.196777, 0.0405273, 1.13281
1763, 0.00502665, -1, 0, -1, -2, -0.196777, 0.0405273, 1.13281
1764, 0.00498046, -1, 0, -1, -2, -0.196777, 0.0405273, 1.13281
1765, 0.00503837, -1, 0, -1, -2, -0.196777, 0.0405273, 1.13281
1766, 0.00493428, -1, 0, -1, -2, -0.196777, 0.0405273, 1.13281
1767, 0.00499402, -2, 2, 0, -2, -0.171387, 0.0869141, 1.17773
1768, 0.00501565, 0, -4, -5, -4, -0.171387, 0.0869141, 1.17773
1769, 0.00502811, 0, -3, -1, 0, -0.171387, 0.0869141, 1.17773
1770, 0.00496067, 0, -3, -1, 0, -0.171387, 0.0869141, 1.17773
1771, 0.0050556, 0, -3, -1, 0, -0.13916, 0.15332, 1.22852
1772, 0.00488773, -5, -8, -1, -3, -0.13916, 0.15332, 1.22852
1773, 0.00511645, -5, -8, -1, -3, -0.13916, 0.15332, 1.22852
1774, 0.00483275, 0, -1, -6, 3, -0.13916, 0.15332, 1.22852
1775, 0.00512561, 0, -1, -6, 3, -0.0917969, 0.246094, 1.30029
1776, 0.00492915, 5, 2, 11, 4, -0.0917969, 0.246094, 1.30029
1777, 0.00503508, 5, 2, 11, 4, -0.0917969, 0.246094, 1.30029
1778, 0.00508199, 5, 2, 11, 4, -0.0917969, 0.246094, 1.30029
1779, 0.00483898, 0, 7, 1, 4, -0.0512695, 0.313477, 1.37451
1780, 0.00511865, -6, -6, -25, -7, -0.0512695, 0.313477, 1.37451
1781, 0.00504241, 9, 32, 5, 0, -0.0512695, 0.313477, 1.37451
1782, 0.00494234, 9, 32, 5, 0, -0.0512695, 0.313477, 1.37451
1783, 0.00498816, 9, 32, 5, 0, 0.484863, 0.722168, 1.17773
1784, 0.00499806, 3, -29, 9, 0, 0.484863, 0.722168, 1.17773
1785, 0.0050589, 3, -29, 9, 0, 0.484863, 0.722168, 1.17773
1786, 0.00495297, 3, 49, 8, -5, -0.418457, 0.336426, 1.47705
1787, 0.00500025, 1, -10, -16, 0, -0.418457, 0.336426, 1.47705
1788, 0.00499549, 1, -10, -16, 0, -0.418457, 0.336426, 1.47705
1789, 0.00490825, 1, -10, -16, 0, -0.418457, 0.336426, 1.47705
1790, 0.00509189, -9, -40, -7, -8, -0.418457, 0.336426, 1.47705
1791, 0.00489616, -1, -27, -4, -4, -1.19531, -0.535645, 2.10742
1792, 0.00511058, -1, -27, -4, -4, -1.19531, -0.535645, 2.10742
1793, 0.00498229, -1, -27, -4, -4, -1.19531, -0.535645, 2.10742
1794, 0.0049647, -5, -38, -5, -2, -1.19531, -0.535645, 2.10742
1795, 0.00500869, -5, -38, -5, -2, 0.714844, 0.86377, 1.25537
1796, 0.0050677, -5, 4, 4, 3, 0.714844, 0.86377, 1.25537
1797, 0.00498706, -5, 4, 4, 3, 0.714844, 0.86377, 1.25537
1798, 0.00490972, -1, 11, 2, 2, -0.034668, 0.631836, 1.34424
1799, 0.00512488, -6, 14, -2, -2, -0.034668, 0.631836, 1.34424
1800, 0.00490532, -6, 14, -2, -2, -0.034668, 0.631836, 1.34424
1801, 0.00518425, -6, 14, -2, -2, -0.034668, 0.631836, 1.34424
1802, 0.00480966, 0, 4, -5, 0, -0.034668, 0.631836, 1.34424
1803, 0.00495627, -4, -2, -9, -5, 0.0400391, 0.366211, 1.38525
1804, 0.00512744, 0, 5, 0, 0, 0.0400391, 0.366211, 1.38525
1805, 0.00487967, -3, -28, -20, -5, 0.0400391, 0.366211, 1.38525
1806, 0.00505487, -3, -28, -20, -5, 0.0400391, 0.366211, 1.38525
1807, 0.00505047, -3, -28, -20, -5, 0.00244141, 0.318848, 1.33301
1808, 0.00492292, -1, -6, -5, -3, 0.00244141, 0.318848, 1.33301
1809, 0.00509885, -1, -6, -5, -3, 0.00244141, 0.318848, 1.33301
1810, 0.00486464, -7, -1, 6, -4, 0.00244141, 0.318848, 1.33301
1811, 0.00516153, -7, -1, 6, -4, -0.0493164, 0.383301, 1.23047
1812, 0.00491375, 4, 7, 10, 2, -0.0493164, 0.383301, 1.23047
1813, 0.00502078, 4, 7, 10, 2, -0.0493164, 0.383301, 1.23047
1814, 0.00503911, 2, 9, 28, 1, -0.0493164, 0.383301, 1.23047
1815, 0.00485987, 2, 9, 28, 1, -0.0732422, 0.553711, 1.2417
1816, 0.00510032, 9, -41, -46, -8, -0.0732422, 0.553711, 1.2417
1817, 0.00498889, -10, -63, -18, -6, -0.0732422, 0.553711, 1.2417
1818, 0.00507063, -10, -63, -18, -6, -0.0732422, 0.553711, 1.2417
1819, 0.00492108, -10, -63, -18, -6, -0.142578, 0.6875, 1.1582
1820, 0.00503874, 14, 4, 68, 16, -0.142578, 0.6875, 1.1582
1821, 0.00500942, 14, 4, 68, 16, -0.142578, 0.6875, 1.1582
1822, 0.00500025, -29, -41, -34, -20, -0.142578, 0.6875, 1.1582
1823, 0.00496617, -29, -41, -34, -20, -0.261719, 0.624512, 1.04102
1824, 0.00508236, -29, -41, -34, -20, -0.261719, 0.624512, 1.04102
1825, 0.00491119, -13, -8, -43, -8, -0.261719, 0.624512, 1.04102
1826, 0.00502115, -13, -8, -43, -8, -0.261719, 0.624512, 1.04102
1827, 0.00496214, 21, 11, 2, 7, -0.261719, 0.624512, 1.04102
1828, 0.00502005, 2, 5, 15, -5, -0.317871, 0.5, 1.04248
1829, 0.00497533, 2, 5, 15, -5, -0.317871, 0.5, 1.04248
1830, 0.0050677, 2, 5, 15, -5, -0.317871, 0.5, 1.04248
1831, 0.00505743, 31, -8, -11, 6, -0.376953, 0.539551, 1.05322
1832, 0.00486574, -7, 34, 16, 6, -0.376953, 0.539551, 1.05322
1833, 0.00506733, -7, 34, 16, 6, -0.376953, 0.539551, 1.05322
1834, 0.00497167, -31, 22, -1, -5, -0.376953, 0.539551, 1.05322
1835, 0.00506916, -31, 22, -1, -5, -0.492676, 0.537109, 1.04443
1836, 0.00489029, -31, 22, -1, -5, -0.492676, 0.537109, 1.04443
1837, 0.00509885, 7, -23, -43, -1, -0.492676, 0.537109, 1.04443
1838, 0.00503288, -2, 12, -3, 5, -0.492676, 0.537109, 1.04443
1839, 0.00489799, -2, 12, -3, 5, -0.490234, 0.47168, 1.00146
1840, 0.00496397, -12, -67, -43, -10, -0.490234, 0.47168, 1.00146
1841, 0.00510472, -12, -67, -43, -10, -0.490234, 0.47168, 1.00146
1842, 0.00500832, -12, -67, -43, -10, -0.490234, 0.47168, 1.00146
1843, 0.00498706, 4, 51, 44, 13, -0.304199, 0.370605, 0.899414
1844, 0.00493355, 4, 51, 44, 13, -0.304199, 0.370605, 0.899414
1845, 0.00509116, 4, 51, 44, 13, -0.304199, 0.370605, 0.899414
1846, 0.00496727, 0, 27, 104, 15, -0.304199, 0.370605, 0.899414
1847, 0.00500539, 0, 27, 104, 15, -0.10498, 0.309082, 0.855957
1848, 0.00507576, 0, 27, 104, 15, -0.10498, 0.309082, 0.855957
1849, 0.00490606, 20, 67, 53, 4, -0.10498, 0.309082, 0.855957
1850, 0.00494271, 35, -38, 20, -1, -0.10498, 0.309082, 0.855957
1851, 0.00498559, 59, 13, -12, 2, 0.242676, 0.452637, 0.928711
1852, 0.00504057, -8, 60, -27, 6, 0.242676, 0.452637, 0.928711
1853, 0.00511131, -8, 60, -27, 6, 0.242676, 0.452637, 0.928711
1854, 0.00494821, -8, 60, -27, 6, 0.242676, 0.452637, 0.928711
1855, 0.00499036, -85, 78, 14, 4, 0.58252, 0.808594, 0.617676
1856, 0.00498963, 12, -128, 13, -6, 0.58252, 0.808594, 0.617676
1857, 0.00495407, 12, -128, 13, -6, 0.58252, 0.808594, 0.617676
1858, 0.00506147, -70, 66, 4, 0, 0.58252, 0.808594, 0.617676
1859, 0.00501308, -70, 66, 4, 0, 0.794922, 1.08105, 0.131836
1860, 0.00497276, -70, 66, 4, 0, 0.794922, 1.08105, 0.131836
1861, 0.00510948, -23, 63, 22, 2, 0.794922, 1.08105, 0.131836
1862, 0.00481002, 121, 70, -27, -4, 0.794922, 1.08105, 0.131836
1863, 0.00508529, 121, 70, -27, -4, 0.727051, 1.41553, -0.444336
1864, 0.0048837, 7, -107, 2, 4, 0.727051, 1.41553, -0.444336
1865, 0.00511645, 7, -107, 2, 4, 0.727051, 1.41553, -0.444336
1866, 0.00490386, 7, -107, 2, 4, 0.727051, 1.41553, -0.444336
1867, 0.00516959, -14, 127, -2, -3, 0.419434, 1.03174, -0.395996
1868, 0.00493574, 22, 122, -21, -5, 0.419434, 1.03174, -0.395996
1869, 0.00500905, 22, 122, -21, -5, 0.419434, 1.03174, -0.395996
1870, 0.00503727, -9, -68, -30, -4, 0.419434, 1.03174, -0.395996
1871, 0.00496323, -9, -68, -30, -4, -0.000488281, -1.49316, 0.730957
1872, 0.00497973, -9, -68, -30, -4, -0.000488281, -1.49316, 0.730957
1873, 0.00498669, -47, -82, -2, 4, -0.000488281, -1.49316, 0.730957
1874, 0.00505487, -27, 17, -5, -2, -0.000488281, -1.49316, 0.730957
1875, 0.00493941, -27, 17, -5, -2, -0.300781, -2.32178, 0.842285
1876, 0.00502628, -22, 20, -9, -17, -0.300781, -2.32178, 0.842285
1877, 0.00529348, -22, 20, -9, -17, -0.300781, -2.32178, 0.842285
1878, 0.00474038, -22, 20, -9, -17, -0.300781, -2.32178, 0.842285
1879, 0.00498193, 94, -24, -41, -2, -0.471191, -2.00684, 0.712891
1880, 0.00501272, -24, 12, 1, 3, -0.471191, -2.00684, 0.712891
1881, 0.00500172, -24, 12, 1, 3, -0.471191, -2.00684, 0.712891
1882, 0.00493978, -43, 34, -35, -29, -0.471191, -2.00684, 0.712891
1883, 0.0050523, -43, 34, -35, -29, -0.361328, -0.774414, 0.442871
1884, 0.00492548, -43, 34, -35, -29, -0.361328, -0.774414, 0.442871
1885, 0.0049757, 59, 36, 7, -1, -0.361328, -0.774414, 0.442871
1886, 0.00497093, -12, -13, 2, 3, -0.259766, 0.185547, 0.413574
1887, 0.00573479, -12, -13, 2, 3, -0.259766, 0.185547, 0.413574
1888, 0.00424263, -4, 93, -9, -5, -0.259766, 0.185547, 0.413574
1889, 0.00513331, -4, 93, -9, -5, -0.259766, 0.185547, 0.413574
1890, 0.00489469, -4, 93, -9, -5, -0.259766, 0.185547, 0.413574
1891, 0.00509592, -78, -31, -48, -13, -0.356934, 0.165039, 0.608398
1892, 0.00492328, -1, 8, -4, -1, -0.356934, 0.165039, 0.608398
1893, 0.00500759, -1, 8, -4, -1, -0.356934, 0.165039, 0.608398
1894, 0.00622668, -32, 75, 25, 2, -0.356934, 0.165039, 0.608398
1895, 0.00506183, -32, 75, 25, 2, -0.390137, -0.392578, 0.666992
1896, 0.0047041, -32, 75, 25, 2, -0.390137, -0.392578, 0.666992
1897, 0.0050611, 2, -38, 20, 4, -0.390137, -0.392578, 0.666992
1898, 0.00495261, 28, 48, 0, -10, -0.425293, -0.760742, 0.692383
1899, 0.00515237, 28, 48, 0, -10, -0.425293, -0.760742, 0.692383
1900, 0.00484411, -11, 29, 14, 8, -0.425293, -0.760742, 0.692383
1901, 0.00511241, -11, 29, 14, 8, -0.425293, -0.760742, 0.692383
1902, 0.00489982, -11, 29, 14, 8, -0.425293, -0.760742, 0.692383
1903, 0.00500759, -17, -11, 6, 1, -0.483887, -0.791504, 0.733398
1904, 0.00506696, -15, -5, 1, -2, -0.483887, -0.791504, 0.733398
1905, 0.00497496, -15, -5, 1, -2, -0.483887, -0.791504, 0.733398
1906, 0.00499696, 14, -55, -6, 1, -0.483887, -0.791504, 0.733398
1907, 0.00500722, 14, -55, -6, 1, -0.464844, -0.647949, 0.784668
1908, 0.00500172, 14, -55, -6, 1, -0.464844, -0.647949, 0.784668
1909, 0.00498596, -27, 14, 2, 0, -0.464844, -0.647949, 0.784668
1910, 0.00493574, 34, 66, 48, 14, -0.453125, -0.574219, 0.811035
1911, 0.0051608, 34, 66, 48, 14, -0.453125, -0.574219, 0.811035
1912, 0.0048837, 55, -53, -37, -11, -0.453125, -0.574219, 0.811035
1913, 0.00504461, 55, -53, -37, -11, -0.453125, -0.574219, 0.811035
1914, 0.00496617, 55, -53, -37, -11, -0.453125, -0.574219, 0.811035
1915, 0.00503324, -25, 35, 24, 11, -0.476074, -0.643066, 0.822754
1916, 0.00499549, -39, -2, -27, -4, -0.476074, -0.643066, 0.822754
1917, 0.0049581, -39, -2, -27, -4, -0.476074, -0.643066, 0.822754
1918, 0.00504717, 2, -26, 19, 5, -0.476074, -0.643066, 0.822754
1919, 0.00498559, 2, -26, 19, 5, -0.45459, -0.617188, 0.806641
1920, 0.00499842, 2, -26, 19, 5, -0.45459, -0.617188, 0.806641
1921, 0.00502188, -28, 20, 2, -3, -0.45459, -0.617188, 0.806641
1922, 0.0049614, 16, -37, -17, -5, -0.431641, -0.544922, 0.803711
1923, 0.00505633, 16, -37, -17, -5, -0.431641, -0.544922, 0.803711
1924, 0.00492695, 14, 7, -13, -1, -0.431641, -0.544922, 0.803711
1925, 0.00503471, 14, 7, -13, -1, -0.431641, -0.544922, 0.803711
1926, 0.00503104, 14, 7, -13, -1, -0.431641, -0.544922, 0.803711
1927, 0.00499146, 0, 5, -26, -6, -0.430176, -0.506348, 0.84375
1928, 0.00499952, 4, -22, 10, 3, -0.430176, -0.506348, 0.84375
1929, 0.00503984, 4, -22, 10, 3, -0.430176, -0.506348, 0.84375
1930, 0.00492402, 29, 7, 36, 0, -0.430176, -0.506348, 0.84375
1931, 0.00502225, 29, 7, 36, 0, -0.459961, -0.533691, 0.867188
1932, 0.00497826, 29, 7, 36, 0, -0.459961, -0.533691, 0.867188
1933, 0.00503324, -14, 31, 23, 1, -0.459961, -0.533691, 0.867188
1934, 0.00496947, 0, -19, -3, -2, -0.438477, -0.529785, 0.885742
1935, 0.00502555, 0, -19, -3, -2, -0.438477, -0.529785, 0.885742
1936, 0.00497753, 47, 9, 13, 0, -0.438477, -0.529785, 0.885742
1937, 0.00501931, 47, 9, 13, 0, -0.438477, -0.529785, 0.885742
1938, 0.0049592, 47, 9, 13, 0, -0.438477, -0.529785, 0.885742
1939, 0.0050556, 23, -34, -22, -6, -0.420898, -0.483887, 0.876953
1940, 0.00498853, 68, -11, 14, 13, -0.420898, -0.483887, 0.876953
1941, 0.00505267, 68, -11, 14, 13, -0.420898, -0.483887, 0.876953
1942, 0.00491962, -63, 6, -25, -10, -0.420898, -0.483887, 0.876953
1943, 0.00503727, -63, 6, -25, -10, -0.44043, -0.436523, 0.893555
1944, 0.00510875, -63, 6, -25, -10, -0.44043, -0.436523, 0.893555
1945, 0.00489103, -23, 14, 18, -7, -0.44043, -0.436523, 0.893555
1946, 0.00501345, -23, 1, -13, 0, -0.431152, -0.436523, 0.908203
1947, 0.00498926, -23, 1, -13, 0, -0.431152, -0.436523, 0.908203
1948, 0.0049691, -5, -18, 1, 0, -0.431152, -0.436523, 0.908203
1949, 0.00502408, -5, -18, 1, 0, -0.431152, -0.436523, 0.908203
1950, 0.00491302, -5, -18, 1, 0, -0.431152, -0.436523, 0.908203
1951, 0.00514723, 21, -22, 1, -3, -0.408691, -0.383789, 0.885742
1952, 0.00492548, -14, 8, -26, -2, -0.408691, -0.383789, 0.885742
1953, 0.00500832, -14, 8, -26, -2, -0.408691, -0.383789, 0.885742
1954, 0.00496397, 14, -1, 7, 8, -0.408691, -0.383789, 0.885742
1955, 0.00503361, 14, -1, 7, 8, -0.409668, -0.354004, 0.901367
1956, 0.00502811, 14, -1, 7, 8, -0.409668, -0.354004, 0.901367
1957, 0.00499329, -19, 1, 8, -3, -0.409668, -0.354004, 0.901367
1958, 0.00498413, 42, -16, 10, 2, -0.428711, -0.387695, 0.91748
1959, 0.00500795, 42, -16, 10, 2, -0.428711, -0.387695, 0.91748
1960, 0.00492768, -29, -8, -63, -12, -0.428711, -0.387695, 0.91748
1961, 0.00513587, -29, -8, -63, -12, -0.428711, -0.387695, 0.91748
1962, 0.00490386, -29, -8, -63, -12, -0.428711, -0.387695, 0.91748
1963, 0.00502005, 20, -2, -13, -3, -0.407227, -0.424316, 0.930664
1964, 0.00500025, -5, -12, 22, 3, -0.407227, -0.424316, 0.930664
1965, 0.00500869, -5, -12, 22, 3, -0.407227, -0.424316, 0.930664
1966, 0.00496617, -28, 20, -8, 0, -0.407227, -0.424316, 0.930664
1967, 0.00498889, -28, 20, -8, 0, -0.394531, -0.381836, 0.907715
1968, 0.00506586, -28, 20, -8, 0, -0.394531, -0.381836, 0.907715
1969, 0.00493318, -2, 0, 12, 6, -0.394531, -0.381836, 0.907715
1970, 0.00504021, -1, -1, 18, 5, -0.40332, -0.359375, 0.910156
1971, 0.00500245, -1, -1, 18, 5, -0.40332, -0.359375, 0.910156
1972, 0.00496287, 41, 2, 9, -1, -0.40332, -0.359375, 0.910156
1973, 0.00502078, 41, 2, 9, -1, -0.40332, -0.359375, 0.910156
1974, 0.00500759, 41, 2, 9, -1, -0.40332, -0.359375, 0.910156
1975, 0.00498119, 4, 1, 2, 0, -0.402344, -0.368652, 0.92627
1976, 0.00501968, -15, 4, 11, 0, -0.402344, -0.368652, 0.92627
1977, 0.00495884, -15, 4, 11, 0, -0.402344, -0.368652, 0.92627
1978, 0.00506293, 43, -11, 5, 6, -0.402344, -0.368652, 0.92627
1979, 0.004968, 43, -11, 5, 6, -0.413574, -0.364258, 0.912109
1980, 0.00504204, 43, -11, 5, 6, -0.413574, -0.364258, 0.912109
1981, 0.00496947, -27, -8, -7, -7, -0.413574, -0.364258, 0.912109
1982, 0.00500319, -13, 1, -14, 0, -0.414551, -0.368652, 0.919922
1983, 0.00500392, -13, 1, -14, 0, -0.414551, -0.368652, 0.919922
1984, 0.005071, 0, 2, 31, 3, -0.414551, -0.368652, 0.919922
1985, 0.00493868, 0, 2, 31, 3, -0.414551, -0.368652, 0.919922
1986, 0.00500612, 0, 2, 31, 3, -0.414551, -0.368652, 0.919922
1987, 0.00501088, -9, 14, 1, -3, -0.410645, -0.352051, 0.897461
1988, 0.00495994, -22, -9, 3, -2, -0.410645, -0.352051, 0.897461
1989, 0.00500392, -22, -9, 3, -2, -0.410645, -0.352051, 0.897461
1990, 0.0049746, -68, -3, -7, -1, -0.410645, -0.352051, 0.897461
1991, 0.00504057, -68, -3, -7, -1, -0.410645, -0.352051, 0.897461
1992, 0.00497093, -68, -3, -7, -1, -0.410645, -0.352051, 0.897461
1993, 0.00501272, -9, 3, -3, 2, -0.421875, -0.355957, 0.900391
1994, 0.00503837, -4, -3, -16, -10, -0.425781, -0.339844, 0.899902
1995, 0.00497606, -4, -3, -16, -10, -0.425781, -0.339844, 0.899902
1996, 0.00576741, 6, 1, 9, 9, -0.425781, -0.339844, 0.899902
1997, 0.00520735, 6, 1, 9, 9, -0.425781, -0.339844, 0.899902
1998, 0.00499402, 6, 1, 9, 9, -0.425781, -0.339844, 0.899902
1999, 0.0049669, 8, 0, 18, 2, -0.426758, -0.358398, 0.893066
2000, 0.00510472, -16, -4, -39, -6, -0.426758, -0.358398, 0.893066
2001, 0.00499549, -19, 1, -36, -5, -0.426758, -0.358398, 0.893066
2002, 0.0049592, -19, 1, -36, -5, -0.426758, -0.358398, 0.893066
2003, 0.00500722, -19, 1, -36, -5, -0.431641, -0.362793, 0.88623
2004, 0.00500649, -31, 5, 5, -1, -0.431641, -0.362793, 0.88623
2005, 0.00495847, -31, 5, 5, -1, -0.431641, -0.362793, 0.88623
2006, 0.00500172, -10, 4, 12, -2, -0.433105, -0.352539, 0.875
2007, 0.00499806, 5, -1, -11, -4, -0.433105, -0.352539, 0.875
2008, 0.00501895, 5, -1, -11, -4, -0.433105, -0.352539, 0.875
2009, 0.00497643, 5, -1, -11, -4, -0.433105, -0.352539, 0.875
2010, 0.00495261, 5, -1, -11, -4, -0.433105, -0.352539, 0.875
2011, 0.00507576, -1, -3, 1, 1, -0.423828, -0.361816, 0.873535
2012, 0.00500282, 30, 4, 4, 2, -0.423828, -0.361816, 0.873535
2013, 0.00500759, 30, 4, 4, 2, -0.423828, -0.361816, 0.873535
2014, 0.00497936, 30, 4, 4, 2, -0.423828, -0.361816, 0.873535
2015, 0.00499182, 13, -4, -1, -2, -0.435547, -0.354492, 0.899902
2016, 0.00502151, -7, -6, -24, -3, -0.435547, -0.354492, 0.899902
2017, 0.00493171, -7, -6, -24, -3, -0.435547, -0.354492, 0.899902
2018, 0.00511205, 12, -2, 2, 2, -0.43457, -0.362305, 0.894531
2019, 0.00494344, 12, -2, 2, 2, -0.43457, -0.362305, 0.894531
2020, 0.00503984, 12, -2, 2, 2, -0.43457, -0.362305, 0.894531
2021, 0.00493501, 5, -4, 1, -2, -0.43457, -0.362305, 0.894531
2022, 0.00506257, 5, -4, 1, -2, -0.43457, -0.362305, 0.894531
2023, 0.00494014, 14, 3, -20, -4, -0.431152, -0.342285, 0.882324
2024, 0.00501895, 5, -7, 9, 1, -0.431152, -0.342285, 0.882324
2025, 0.00498523, 5, -7, 9, 1, -0.431152, -0.342285, 0.882324
2026, 0.0049647, 5, -7, 9, 1, -0.431152, -0.342285, 0.882324
2027, 0.00499696, -18, -4, 28, 8, -0.431152, -0.331543, 0.875
2028, 0.00520478, -12, -1, -2, -7, -0.431152, -0.331543, 0.875
2029, 0.0048837, -12, -1, -2, -7, -0.431152, -0.331543, 0.875
2030, 0.00495627, 7, -1, -4, -1, -0.429199, -0.347656, 0.879883
2031, 0.00501308, 7, -1, -4, -1, -0.429199, -0.347656, 0.879883
2032, 0.00497936, 7, -1, -4, -1, -0.429199, -0.347656, 0.879883
2033, 0.00491852, 9, 3, -9, 0, -0.429199, -0.347656, 0.879883
2034, 0.00520698, 9, 3, -9, 0, -0.429199, -0.347656, 0.879883
2035, 0.00486134, 1, 0, -1, -1, -0.438965, -0.356934, 0.898926
2036, 0.00503031, -1, -2, -11, -2, -0.438965, -0.356934, 0.898926
2037, 0.00500282, -1, -2, -11, -2, -0.438965, -0.356934, 0.898926
2038, 0.00500209, -1, -2, -11, -2, -0.438965, -0.356934, 0.898926
2039, 0.00498193, 3, 1, -3, -1, -0.4375, -0.354492, 0.894531
2040, 0.00505084, 0, 0, -4, 0, -0.4375, -0.354492, 0.894531
2041, 0.00497716, 0, 0, -4, 0, -0.4375, -0.354492, 0.894531
2042, 0.00499366, -5, -5, -9, -1, -0.431641, -0.331055, 0.888672
2043, 0.00493428, -5, -5, -9, -1, -0.431641, -0.331055, 0.888672
2044, 0.00512451, -5, -5, -9, -1, -0.431641, -0.331055, 0.888672
2045, 0.00491485, -6, -1, 3, 1, -0.431641, -0.331055, 0.888672
2046, 0.00503471, -6, -1, 3, 1, -0.431641, -0.331055, 0.888672
2047, 0.00498303, -6, -1, 3, 1, -0.431641, -0.331055, 0.888672
2048, 0.00501895, -10, 0, 19, 1, -0.43457, -0.339355, 0.879395
2049, 0.00489543, 1, -7, 5, -1, -0.43457, -0.339355, 0.879395
2050, 0.00505707, 1, -7, 5, -1, -0.43457, -0.339355, 0.879395
2051, 0.0050666, -2, -1, 0, 0, -0.433594, -0.34082, 0.895508
2052, 0.00498669, 4, -1, 12, 2, -0.433594, -0.34082, 0.895508
2053, 0.00503947, 4, -1, 12, 2, -0.433594, -0.34082, 0.895508
2054, 0.00493648, 8, -2, 7, 0, -0.440918, -0.345215, 0.895996
2055, 0.00499879, 8, -2, 7, 0, -0.440918, -0.345215, 0.895996
2056, 0.00500172, 8, -2, 7, 0, -0.440918, -0.345215, 0.895996
2057, 0.00498376, 9, 1, 16, 4, -0.440918, -0.345215, 0.895996
2058, 0.00494344, 9, 1, 16, 4, -0.440918, -0.345215, 0.895996
2059, 0.00502151, -1, 1, -3, -1, -0.458984, -0.360352, 0.917969
2060, 0.00510398, -31, 1, -19, -5, -0.458984, -0.360352, 0.917969
2061, 0.00499366, -31, 1, -19, -5, -0.458984, -0.360352, 0.917969
2062, 0.00495517, -31, 1, -19, -5, -0.458984, -0.360352, 0.917969
2063, 0.00502188, -6, -4, -14, 0, -0.460938, -0.340332, 0.921875
2064, 0.00500062, 5, 1, 11, 1, -0.460938, -0.340332, 0.921875
2065, 0.00497423, 5, 1, 11, 1, -0.460938, -0.340332, 0.921875
2066, 0.00491778, 27, 0, -15, -3, -0.444336, -0.295898, 0.904297
2067, 0.00504461, 27, 0, -15, -3, -0.444336, -0.295898, 0.904297
2068, 0.00507649, 27, 0, -15, -3, -0.444336, -0.295898, 0.904297
2069, 0.00494857, 41, 0, -2, 0, -0.444336, -0.295898, 0.904297
2070, 0.00510618, 41, 0, -2, 0, -0.444336, -0.295898, 0.904297
2071, 0.00488333, 4, -1, 17, 5, -0.439941, -0.30127, 0.90918
2072, 0.00504277, -4, 3, -2, -3, -0.439941, -0.30127, 0.90918
2073, 0.00491192, -4, 3, -2, -3, -0.439941, -0.30127, 0.90918
2074, 0.00501418, -4, 3, -2, -3, -0.439941, -0.30127, 0.90918
2075, 0.0050556, 11, 0, 20, -3, -0.445312, -0.32959, 0.910645
2076, 0.00503434, -8, 0, -21, 0, -0.445312, -0.32959, 0.910645
2077, 0.00492951, -8, 0, -21, 0, -0.445312, -0.32959, 0.910645
2078, 0.00507576, -11, 1, -13, -2, -0.433105, -0.307617, 0.902832
2079, 0.0049779, -11, 1, -13, -2, -0.433105, -0.307617, 0.902832
2080, 0.00500282, -11, 1, -13, -2, -0.433105, -0.307617, 0.902832
2081, 0.00498853, -12, 2, -12, -3, -0.433105, -0.307617, 0.902832
2082, 0.00500245, -12, 2, -12, -3, -0.433105, -0.307617, 0.902832
2083, 0.0048782, -6, 0, 37, 3, -0.428711, -0.289551, 0.898438
2084, 0.0052429, 10, -3, 8, -1, -0.428711, -0.289551, 0.898438
2085, 0.00498193, 10, -3, 8, -1, -0.428711, -0.289551, 0.898438
2086, 0.0051586, 10, -3, 8, -1, -0.428711, -0.289551, 0.898438
2087, 0.00474295, -4, 1, -4, -1, -0.44043, -0.294434, 0.910645
2088, 0.00500942, -8, -3, -1, -1, -0.44043, -0.294434, 0.910645
2089, 0.0049658, -8, -3, -1, -1, -0.44043, -0.294434, 0.910645
2090, 0.00501638, -8, -3, -1, -1, -0.435547, -0.302734, 0.916504
2091, 0.00500795, 0, -7, -3, 0, -0.435547, -0.302734, 0.916504
2092, 0.00501895, 0, -7, -3, 0, -0.435547, -0.302734, 0.916504
2093, 0.00491009, 32, 2, -10, -3, -0.435547, -0.302734, 0.916504
2094, 0.00513184, 32, 2, -10, -3, -0.435547, -0.302734, 0.916504
2095, 0.0048617, -1, -2, -4, -1, -0.438477, -0.291016, 0.921387
2096, 0.00499402, 4, 2, 21, 4, -0.438477, -0.291016, 0.921387
2097, 0.00508163, 4, 2, 21, 4, -0.438477, -0.291016, 0.921387
2098, 0.00500245, 4, 2, 21, 4, -0.438477, -0.291016, 0.921387
2099, 0.00497863, -4, 2, -8, -2, -0.438477, -0.291504, 0.922852
2100, 0.00595471, -20, 0, 6, 0, -0.438477, -0.291504, 0.922852
2101, 0.00511095, -20, 0, 6, 0, -0.438477, -0.291504, 0.922852
2102, 0.00494418, -20, 0, 6, 0, -0.437988, -0.303223, 0.919922
2103, 0.00501968, 23, 2, 10, -1, -0.437988, -0.303223, 0.919922
2104, 0.00498046, 23, 2, 10, -1, -0.437988, -0.303223, 0.919922
2105, 0.00498193, -10, -3, 8, -3, -0.437988, -0.303223, 0.919922
2106, 0.00502225, -10, -3, 8, -3, -0.439453, -0.308594, 0.922363
2107, 0.00493941, -19, 0, -32, -10, -0.439453, -0.308594, 0.922363
2108, 0.0050699, 5, 0, -6, -1, -0.439453, -0.308594, 0.922363
2109, 0.00498523, 5, 0, -6, -1, -0.439453, -0.308594, 0.922363
2110, 0.00497203, 5, 0, -6, -1, -0.439453, -0.308594, 0.922363
2111, 0.0050468, -1, -1, 0, 2, -0.435059, -0.320801, 0.918457
2112, 0.00501308, -27, -2, -1, 0, -0.435059, -0.320801, 0.918457
2113, 0.00500209, -27, -2, -1, 0, -0.435059, -0.320801, 0.918457
2114, 0.0049724, -27, -2, -1, 0, -0.433594, -0.308594, 0.91748
2115, 0.00504204, 2, 0, 2, 1, -0.433594, -0.308594, 0.91748
2116, 0.00495884, 2, 0, 2, 1, -0.433594, -0.308594, 0.91748
2117, 0.00506843, -9, -1, 16, 1, -0.433594, -0.308594, 0.91748
2118, 0.00492695, -9, -1, 16, 1, -0.431641, -0.294922, 0.907227
2119, 0.00490056, -6, -2, -11, -3, -0.431641, -0.294922, 0.907227
2120, 0.00505487, 4, -2, 7, 5, -0.431641, -0.294922, 0.907227
2121, 0.00519305, 4, -2, 7, 5, -0.431641, -0.294922, 0.907227
2122, 0.00484778, 4, -2, 7, 5, -0.431641, -0.294922, 0.907227
2123, 0.00501088, -9, -1, -10, -2, -0.433105, -0.306641, 0.911133
2124, 0.00495297, -1, -2, -15, -5, -0.433105, -0.306641, 0.911133
2125, 0.00511131, -1, -2, -15, -5, -0.433105, -0.306641, 0.911133
