Frame, Time_def, Emg1, Emg2, Emg3, Emg4, AccX, AccY, AccZ
4709, 0.0059822, 0, -5, -1, -1, -0.229004, 0.0639648, 1.03271
4710, 0.005325, 0, -5, -1, -1, -0.229004, 0.0639648, 1.03271
4711, 0.00463849, 0, -5, -1, -1, -0.229004, 0.0639648, 1.03271
4712, 0.00506367, 0, -1, -1, 0, -0.229004, 0.0639648, 1.03271
4713, 0.00497643, 0, -1, -1, 0, -0.229004, 0.0639648, 1.03271
4714, 0.00507686, 0, -3, 5, 7, -0.219727, 0.0668945, 1.03662
4715, 0.00495994, -1, -4, 1, 0, -0.219727, 0.0668945, 1.03662
4716, 0.00495261, -1, -4, 1, 0, -0.219727, 0.0668945, 1.03662
4717, 0.00498633, -1, -4, 1, 0, -0.219727, 0.0668945, 1.03662
4718, 0.00497606, -2, -2, -5, -4, -0.226074, 0.0654297, 1.03223
4719, 0.00500392, -2, -2, -5, -4, -0.226074, 0.0654297, 1.03223
4720, 0.00501675, -1, 1, 5, 3, -0.226074, 0.0654297, 1.03223
4721, 0.00502811, -1, 1, 5, 3, -0.22998, 0.0693359, 1.03662
4722, 0.00499952, 1, 0, -1, -1, -0.22998, 0.0693359, 1.03662
4723, 0.00499952, 1, 0, -1, -1, -0.22998, 0.0693359, 1.03662
4724, 0.00497496, 0, 1, -1, -5, -0.22998, 0.0693359, 1.03662
4725, 0.00502151, 0, 1, -1, -5, -0.22998, 0.0693359, 1.03662
4726, 0.0049614, -1, 0, -1, 0, -0.230469, 0.0698242, 1.03564
4727, 0.00505414, 1, -4, 1, 4, -0.230469, 0.0698242, 1.03564
4728, 0.00505633, 1, -4, 1, 4, -0.230469, 0.0698242, 1.03564
4729, 0.00491265, 1, -4, 1, 4, -0.230469, 0.0698242, 1.03564
4730, 0.00500978, -1, 2, 0, -1, -0.227539, 0.0654297, 1.02832
4731, 0.00503141, -1, 2, 0, -1, -0.227539, 0.0654297, 1.02832
4732, 0.00492841, -1, -2, -3, -2, -0.227539, 0.0654297, 1.02832
4733, 0.00503398, -1, -1, -2, -3, -0.227539, 0.0673828, 1.04004
4734, 0.00488663, -1, -1, -2, -3, -0.227539, 0.0673828, 1.04004
4735, 0.00513074, -1, -1, -2, -3, -0.227539, 0.0673828, 1.04004
4736, 0.00499292, 0, -3, -2, -1, -0.227539, 0.0673828, 1.04004
4737, 0.00503947, 0, -3, -2, -1, -0.227539, 0.0673828, 1.04004
4738, 0.00488919, 0, -3, 1, 3, -0.229004, 0.0683594, 1.04102
4739, 0.00507869, -1, 0, -2, 0, -0.229004, 0.0683594, 1.04102
4740, 0.00500685, -1, 0, -2, 0, -0.229004, 0.0683594, 1.04102
4741, 0.00498669, -1, 0, -2, 0, -0.229004, 0.0683594, 1.04102
4742, 0.00498266, 0, 0, -4, -5, -0.228516, 0.0654297, 1.03955
4743, 0.00500539, 0, 0, -4, -5, -0.228516, 0.0654297, 1.03955
4744, 0.00496837, 0, -2, 2, -1, -0.228516, 0.0654297, 1.03955
4745, 0.00508822, -1, 1, 3, 3, -0.220703, 0.0625, 1.04541
4746, 0.00493721, -1, 1, 3, 3, -0.220703, 0.0625, 1.04541
4747, 0.00502738, -1, 1, 3, 3, -0.220703, 0.0625, 1.04541
4748, 0.00496104, -1, 2, 0, -3, -0.220703, 0.0625, 1.04541
4749, 0.00503581, -1, 2, 0, -3, -0.220703, 0.0625, 1.04541
4750, 0.00495847, 1, 0, -4, 1, -0.216797, 0.0664062, 1.03467
4751, 0.00503508, -2, -4, -2, -1, -0.216797, 0.0664062, 1.03467
4752, 0.00498963, -2, -4, -2, -1, -0.216797, 0.0664062, 1.03467
4753, 0.00497167, -2, -4, -2, -1, -0.216797, 0.0664062, 1.03467
4754, 0.00494601, -1, 1, 0, -3, -0.216797, 0.0737305, 1.0498
4755, 0.00512121, -1, 1, 0, -3, -0.216797, 0.0737305, 1.0498
4756, 0.00494674, 2, -3, -8, -2, -0.216797, 0.0737305, 1.0498
4757, 0.00505523, 1, 0, -1, -2, -0.215332, 0.0800781, 1.05176
4758, 0.00495004, 1, 0, -1, -2, -0.215332, 0.0800781, 1.05176
4759, 0.00500209, 1, 0, -1, -2, -0.215332, 0.0800781, 1.05176
4760, 0.00502701, -3, 1, 1, 3, -0.215332, 0.0800781, 1.05176
4761, 0.00496177, -3, 1, 1, 3, -0.215332, 0.0800781, 1.05176
4762, 0.00505414, -3, -6, -5, -3, -0.209961, 0.0908203, 1.05811
4763, 0.00498669, 3, -2, 0, -1, -0.209961, 0.0908203, 1.05811
4764, 0.00503104, 3, -2, 0, -1, -0.209961, 0.0908203, 1.05811
4765, 0.00494637, 3, -2, 0, -1, -0.209961, 0.0908203, 1.05811
4766, 0.00495884, -2, -5, 0, -1, -0.197754, 0.0957031, 1.05127
4767, 0.00503691, -2, -5, 0, -1, -0.197754, 0.0957031, 1.05127
4768, 0.00500942, 1, -2, -1, -3, -0.197754, 0.0957031, 1.05127
4769, 0.00499476, 1, -2, -1, -3, -0.181641, 0.107422, 1.05713
4770, 0.00490129, 1, -2, -1, -3, -0.181641, 0.107422, 1.05713
4771, 0.00507869, 1, -2, -1, -3, -0.181641, 0.107422, 1.05713
4772, 0.0050457, -2, -6, 0, 0, -0.181641, 0.107422, 1.05713
4773, 0.0049746, -2, -6, 0, 0, -0.181641, 0.107422, 1.05713
4774, 0.00499219, -2, -1, -2, -7, -0.179199, 0.120117, 1.06055
4775, 0.00510288, 2, -3, 6, 0, -0.179199, 0.120117, 1.06055
4776, 0.00489946, 2, -3, 6, 0, -0.179199, 0.120117, 1.06055
4777, 0.00501162, 2, -3, 6, 0, -0.179199, 0.120117, 1.06055
4778, 0.00492035, -1, -2, 3, 1, -0.151855, 0.135254, 1.06885
4779, 0.00511828, -1, -2, 3, 1, -0.151855, 0.135254, 1.06885
4780, 0.0048672, -2, -5, 0, -2, -0.151855, 0.135254, 1.06885
4781, 0.00513697, -2, -5, 0, -2, -0.151855, 0.135254, 1.06885
4782, 0.00496727, -2, -5, 0, -2, -0.151855, 0.135254, 1.06885
4783, 0.00498339, -3, -1, 6, 5, -0.158203, 0.156738, 1.11084
4784, 0.00492988, -5, 1, -7, -2, -0.158203, 0.156738, 1.11084
4785, 0.00512231, -5, 1, -7, -2, -0.158203, 0.156738, 1.11084
4786, 0.0049592, -3, -1, -1, 2, -0.142578, 0.183105, 1.1416
4787, 0.00501382, 0, -5, 2, 4, -0.142578, 0.183105, 1.1416
4788, 0.00490752, 0, -5, 2, 4, -0.142578, 0.183105, 1.1416
4789, 0.00507943, 0, -5, 2, 4, -0.142578, 0.183105, 1.1416
4790, 0.00547382, 4, 0, -5, -3, -0.121094, 0.228027, 1.17236
4791, 0.00454575, 4, 0, -5, -3, -0.121094, 0.228027, 1.17236
4792, 0.00495334, -1, -9, -3, 0, -0.121094, 0.228027, 1.17236
4793, 0.00504167, -1, -9, -3, 0, -0.121094, 0.228027, 1.17236
4794, 0.00489103, -1, -9, -3, 0, -0.121094, 0.228027, 1.17236
4795, 0.00516226, -1, -3, -2, -4, -0.105957, 0.239746, 1.16748
4796, 0.00491009, -1, -5, -7, -1, -0.105957, 0.239746, 1.16748
4797, 0.00507136, -1, -5, -7, -1, -0.105957, 0.239746, 1.16748
4798, 0.00493281, 0, 0, 3, -2, -0.0756836, 0.250977, 1.19189
4799, 0.00502225, -4, 5, 9, -1, -0.0756836, 0.250977, 1.19189
4800, 0.00504021, -4, 5, 9, -1, -0.0756836, 0.250977, 1.19189
4801, 0.00490679, -4, 5, 9, -1, -0.0756836, 0.250977, 1.19189
4802, 0.00502408, 2, 4, 3, 8, -0.0161133, 0.276367, 1.23438
4803, 0.00502958, 2, 4, 3, 8, -0.0161133, 0.276367, 1.23438
4804, 0.00514943, -2, -10, -20, -8, -0.0161133, 0.276367, 1.23438
4805, 0.00491119, -2, -10, -20, -8, -0.0161133, 0.276367, 1.23438
4806, 0.00491412, -2, -10, -20, -8, -0.0161133, 0.276367, 1.23438
4807, 0.00502335, 0, -11, 0, 0, 0.00634766, 0.312012, 1.27051
4808, 0.00502848, 0, -12, 4, 0, 0.00634766, 0.312012, 1.27051
4809, 0.00505304, 0, -12, 4, 0, 0.00634766, 0.312012, 1.27051
4810, 0.00489176, 1, -11, 9, 2, 0.0244141, 0.384766, 1.28516
4811, 0.00498119, -2, 3, -1, -4, 0.0244141, 0.384766, 1.28516
4812, 0.00509592, -2, 3, -1, -4, 0.0244141, 0.384766, 1.28516
4813, 0.00493794, -2, 3, -1, -4, 0.0244141, 0.384766, 1.28516
4814, 0.00499916, -2, -41, 8, 1, 0.074707, 0.38916, 1.29541
4815, 0.00503874, -2, -41, 8, 1, 0.074707, 0.38916, 1.29541
4816, 0.00494674, 4, -12, 7, 4, 0.074707, 0.38916, 1.29541
4817, 0.00503618, 4, -12, 7, 4, 0.074707, 0.38916, 1.29541
4818, 0.00497753, 4, -12, 7, 4, 0.074707, 0.38916, 1.29541
4819, 0.00501308, 6, 7, -12, -4, 0.0541992, 0.422852, 1.27393
4820, 0.00491412, 6, 7, -12, -4, 0.0541992, 0.422852, 1.27393
4821, 0.00503874, 6, 7, -12, -4, 0.0541992, 0.422852, 1.27393
4822, 0.00497313, 6, 7, -12, -4, 0.0541992, 0.422852, 1.27393
4823, 0.00499256, -6, 22, -1, -1, 0.0419922, 0.510254, 1.22656
4824, 0.00500978, -6, 22, -1, -1, 0.0419922, 0.510254, 1.22656
4825, 0.00508272, -6, 22, -1, -1, 0.0419922, 0.510254, 1.22656
4826, 0.00506183, -5, 22, 1, 1, 0.0410156, 0.523438, 1.2583
4827, 0.0049581, -5, 22, 1, 1, 0.0410156, 0.523438, 1.2583
4828, 0.00492182, -8, -6, -8, -2, 0.0410156, 0.523438, 1.2583
4829, 0.00504717, -8, -6, -8, -2, 0.0410156, 0.523438, 1.2583
4830, 0.00498339, -8, -6, -8, -2, 0.0410156, 0.523438, 1.2583
4831, 0.00501785, -3, 9, -1, -1, 0.027832, 0.507324, 1.25781
4832, 0.00506293, -1, -6, 11, 2, 0.027832, 0.507324, 1.25781
4833, 0.00492548, -1, -6, 11, 2, 0.027832, 0.507324, 1.25781
4834, 0.00491449, -2, -2, -12, -2, -0.0283203, 0.523926, 1.25439
4835, 0.00510362, 3, 7, 8, 8, -0.0283203, 0.523926, 1.25439
4836, 0.00498816, 3, 7, 8, 8, -0.0283203, 0.523926, 1.25439
4837, 0.00500832, 3, 7, 8, 8, -0.0283203, 0.523926, 1.25439
4838, 0.00512048, 0, 6, -6, -1, -0.09375, 0.556152, 1.24414
4839, 0.00486061, 0, 6, -6, -1, -0.09375, 0.556152, 1.24414
4840, 0.00498339, 1, 4, 4, -2, -0.09375, 0.556152, 1.24414
4841, 0.00502958, 1, 4, 4, -2, -0.09375, 0.556152, 1.24414
4842, 0.00498266, 1, 4, 4, -2, -0.09375, 0.556152, 1.24414
4843, 0.00503178, -3, -31, -10, 0, -0.188965, 0.493164, 1.18359
4844, 0.00512927, -2, -6, -4, -1, -0.188965, 0.493164, 1.18359
4845, 0.00486061, -2, -6, -4, -1, -0.188965, 0.493164, 1.18359
4846, 0.00537778, -3, 12, 19, -2, -0.221191, 0.450684, 1.13525
4847, 0.00464582, -13, -14, -37, 0, -0.221191, 0.450684, 1.13525
4848, 0.00494931, -13, -14, -37, 0, -0.221191, 0.450684, 1.13525
4849, 0.00500099, -13, -14, -37, 0, -0.221191, 0.450684, 1.13525
4850, 0.00500978, 0, 6, 6, 2, -0.234863, 0.50293, 1.0918
4851, 0.00502005, 0, 6, 6, 2, -0.234863, 0.50293, 1.0918
4852, 0.00496323, 13, 14, 31, 3, -0.234863, 0.50293, 1.0918
4853, 0.00504241, 13, 14, 31, 3, -0.234863, 0.50293, 1.0918
4854, 0.00493574, 13, 14, 31, 3, -0.234863, 0.50293, 1.0918
4855, 0.00505414, 0, 1, 13, 0, -0.290039, 0.591309, 1.05127
4856, 0.0049779, 2, -7, 5, 2, -0.290039, 0.591309, 1.05127
4857, 0.00504974, 2, -7, 5, 2, -0.290039, 0.591309, 1.05127
4858, 0.00499512, -10, 61, 42, 13, -0.377441, 0.610352, 1.1416
4859, 0.00497423, -10, 61, 42, 13, -0.377441, 0.610352, 1.1416
4860, 0.00498303, -10, 61, 42, 13, -0.377441, 0.610352, 1.1416
4861, 0.00502628, -33, 7, -16, -12, -0.377441, 0.610352, 1.1416
4862, 0.0050512, 18, -3, -32, 9, -0.404785, 0.580566, 1.146
4863, 0.00492402, 18, -3, -32, 9, -0.404785, 0.580566, 1.146
4864, 0.00508346, 18, -3, -32, 9, -0.404785, 0.580566, 1.146
4865, 0.00490752, 26, 95, 91, 26, -0.404785, 0.580566, 1.146
4866, 0.00502701, 26, 95, 91, 26, -0.404785, 0.580566, 1.146
4867, 0.00498156, -2, 80, 103, 17, -0.334473, 0.535156, 1.06348
4868, 0.0050677, 48, 98, 2, -8, -0.334473, 0.535156, 1.06348
4869, 0.00494711, 48, 98, 2, -8, -0.334473, 0.535156, 1.06348
4870, 0.00498853, -15, -48, -63, -19, -0.511719, 0.495117, 1.21484
4871, 0.0049625, -15, -48, -63, -19, -0.511719, 0.495117, 1.21484
4872, 0.00506476, -15, -48, -63, -19, -0.511719, 0.495117, 1.21484
4873, 0.00496873, -20, 70, -64, -19, -0.511719, 0.495117, 1.21484
4874, 0.00504021, 106, 72, 17, -9, -0.200684, 0.424316, 1.28223
4875, 0.00501345, 106, 72, 17, -9, -0.200684, 0.424316, 1.28223
4876, 0.00493281, -45, -117, -124, -13, -0.200684, 0.424316, 1.28223
4877, 0.00502371, -45, -117, -124, -13, -0.200684, 0.424316, 1.28223
4878, 0.00495004, -45, -117, -124, -13, -0.200684, 0.424316, 1.28223
4879, 0.0050666, 9, 124, -60, -24, 1.10498, 1.00293, 0.644531
4880, 0.00497386, 97, -122, 101, 18, 1.10498, 1.00293, 0.644531
4881, 0.00501235, 97, -122, 101, 18, 1.10498, 1.00293, 0.644531
4882, 0.00496507, 28, -120, -67, -14, 1.09912, 1.9917, -0.21875
4883, 0.00508126, 28, -120, -67, -14, 1.09912, 1.9917, -0.21875
4884, 0.00492878, 28, -120, -67, -14, 1.09912, 1.9917, -0.21875
4885, 0.00501088, -16, 68, -53, 2, 1.09912, 1.9917, -0.21875
4886, 0.00500209, 20, 49, -42, -10, 1.10352, 3.88477, -1.86182
4887, 0.00503324, 20, 49, -42, -10, 1.10352, 3.88477, -1.86182
4888, 0.00504131, -45, 105, 18, -13, 1.10352, 3.88477, -1.86182
4889, 0.00493391, -45, 105, 18, -13, 1.10352, 3.88477, -1.86182
4890, 0.00498376, -45, 105, 18, -13, 1.10352, 3.88477, -1.86182
4891, 0.00502078, -71, -47, 28, 5, 0.293945, -1.09814, 0.399414
4892, 0.0049768, 1, 104, 8, 0, 0.293945, -1.09814, 0.399414
4893, 0.00502665, 1, 104, 8, 0, 0.293945, -1.09814, 0.399414
4894, 0.00493061, 5, -110, 43, 5, -0.201172, -2.64355, 0.712891
4895, 0.00509555, 5, -110, 43, 5, -0.201172, -2.64355, 0.712891
4896, 0.00494381, 5, -110, 43, 5, -0.201172, -2.64355, 0.712891
4897, 0.00503801, -10, 13, 42, -4, -0.201172, -2.64355, 0.712891
4898, 0.00490019, -54, -93, -23, -7, -0.424316, -3.31543, 0.878906
4899, 0.00512708, -54, -93, -23, -7, -0.424316, -3.31543, 0.878906
4900, 0.00493318, 39, 60, 14, 8, -0.424316, -3.31543, 0.878906
4901, 0.00503581, 39, 60, 14, 8, -0.424316, -3.31543, 0.878906
4902, 0.0049735, 39, 60, 14, 8, -0.424316, -3.31543, 0.878906
4903, 0.00501602, -27, -102, -6, 3, -0.183105, -1.32373, -0.111816
4904, 0.00496287, 17, 103, -9, -6, -0.183105, -1.32373, -0.111816
4905, 0.00509885, 17, 103, -9, -6, -0.183105, -1.32373, -0.111816
4906, 0.00494784, -26, -72, 0, 6, -0.133301, 0.140625, 0.0820312
4907, 0.00493574, -26, -72, 0, 6, -0.133301, 0.140625, 0.0820312
4908, 0.00504204, -26, -72, 0, 6, -0.133301, 0.140625, 0.0820312
4909, 0.00502005, 16, -3, 9, 2, -0.133301, 0.140625, 0.0820312
4910, 0.00501528, 15, -10, 43, 4, -0.291016, 0.595215, 0.382324
4911, 0.00533014, 15, -10, 43, 4, -0.291016, 0.595215, 0.382324
4912, 0.00467111, -11, -54, -3, -6, -0.291016, 0.595215, 0.382324
4913, 0.0049592, -11, -54, -3, -6, -0.291016, 0.595215, 0.382324
4914, 0.00498853, -11, -54, -3, -6, -0.291016, 0.595215, 0.382324
4915, 0.00503434, 19, -1, 11, -2, -0.298828, -0.0395508, 0.634277
4916, 0.00497057, -8, -3, -38, -8, -0.298828, -0.0395508, 0.634277
4917, 0.0049768, -8, -3, -38, -8, -0.298828, -0.0395508, 0.634277
4918, 0.00506843, -13, 73, 8, 7, -0.359375, -0.847656, 0.629883
4919, 0.00489836, -13, 73, 8, 7, -0.359375, -0.847656, 0.629883
4920, 0.00501638, -13, 73, 8, 7, -0.359375, -0.847656, 0.629883
4921, 0.00517802, -46, 28, 32, 7, -0.359375, -0.847656, 0.629883
4922, 0.004957, -11, 41, -12, -4, -0.427246, -1.08447, 0.591797
4923, 0.00502151, -11, 41, -12, -4, -0.427246, -1.08447, 0.591797
4924, 0.00491119, -8, 1, 23, 6, -0.427246, -1.08447, 0.591797
4925, 0.004979, -8, 1, 23, 6, -0.427246, -1.08447, 0.591797
4926, 0.00498523, -8, 1, 23, 6, -0.427246, -1.08447, 0.591797
4927, 0.00502591, 2, -17, 8, 0, -0.403809, -0.98291, 0.558594
4928, 0.004968, -24, -15, -22, -1, -0.403809, -0.98291, 0.558594
4929, 0.00503984, -24, -15, -22, -1, -0.403809, -0.98291, 0.558594
4930, 0.00503178, -8, -4, -1, 2, -0.419434, -0.782715, 0.628906
4931, 0.00498303, -8, -4, -1, 2, -0.419434, -0.782715, 0.628906
4932, 0.00494784, -8, -4, -1, 2, -0.419434, -0.782715, 0.628906
4933, 0.00503691, -32, -13, -15, 1, -0.419434, -0.782715, 0.628906
4934, 0.00492108, -6, 7, 6, 12, -0.45752, -0.756836, 0.720215
4935, 0.0050468, -6, 7, 6, 12, -0.45752, -0.756836, 0.720215
4936, 0.00500795, -2, -12, -19, -8, -0.45752, -0.756836, 0.720215
4937, 0.00513807, -2, -12, -19, -8, -0.45752, -0.756836, 0.720215
4938, 0.00498926, -2, -12, -19, -8, -0.45752, -0.756836, 0.720215
4939, 0.00490459, 11, -1, 5, -3, -0.418945, -0.766113, 0.702148
4940, 0.00497716, 25, -5, 14, 11, -0.418945, -0.766113, 0.702148
4941, 0.0050512, 25, -5, 14, 11, -0.418945, -0.766113, 0.702148
4942, 0.00492695, 3, -1, -11, -9, -0.41748, -0.723145, 0.670898
4943, 0.0050479, 3, -1, -11, -9, -0.41748, -0.723145, 0.670898
4944, 0.00491925, 3, -1, -11, -9, -0.41748, -0.723145, 0.670898
4945, 0.00517399, -1, 1, -19, -9, -0.41748, -0.723145, 0.670898
4946, 0.00487417, 27, -3, -11, -4, -0.467773, -0.676758, 0.70166
4947, 0.00528432, 27, -3, -11, -4, -0.467773, -0.676758, 0.70166
4948, 0.00473635, 12, 4, -1, -6, -0.467773, -0.676758, 0.70166
4949, 0.00499256, 12, 4, -1, -6, -0.467773, -0.676758, 0.70166
4950, 0.00502335, 12, 4, -1, -6, -0.467773, -0.676758, 0.70166
4951, 0.00498156, 39, 2, -1, -3, -0.442383, -0.666016, 0.743164
4952, 0.00500282, 19, -11, -15, 0, -0.442383, -0.666016, 0.743164
4953, 0.00502701, 19, -11, -15, 0, -0.442383, -0.666016, 0.743164
4954, 0.00491595, -24, 0, -4, -1, -0.435059, -0.695801, 0.785645
4955, 0.00510252, -24, 0, -4, -1, -0.435059, -0.695801, 0.785645
4956, 0.00497203, -24, 0, -4, -1, -0.435059, -0.695801, 0.785645
4957, 0.00502958, 8, 3, 1, 8, -0.435059, -0.695801, 0.785645
4958, 0.004887, -1, -1, -37, -8, -0.444824, -0.656738, 0.815918
4959, 0.00512341, -1, -1, -37, -8, -0.444824, -0.656738, 0.815918
4960, 0.00501602, 9, -1, -5, -14, -0.444824, -0.656738, 0.815918
4961, 0.00502115, 9, -1, -5, -14, -0.444824, -0.656738, 0.815918
4962, 0.00498083, 9, -1, -5, -14, -0.444824, -0.656738, 0.815918
4963, 0.00494381, -14, 0, -11, -1, -0.459473, -0.598633, 0.82373
4964, 0.00506806, -8, 0, -9, -8, -0.459473, -0.598633, 0.82373
4965, 0.00493098, -8, 0, -9, -8, -0.459473, -0.598633, 0.82373
4966, 0.00490606, -8, 0, -9, -8, -0.411133, -0.489746, 0.834473
4967, 0.00511571, -20, -7, -2, -2, -0.411133, -0.489746, 0.834473
4968, 0.00499952, -20, -7, -2, -2, -0.411133, -0.489746, 0.834473
4969, 0.00497093, 7, -7, 1, -3, -0.411133, -0.489746, 0.834473
4970, 0.0050611, -14, 5, 9, 9, -0.408691, -0.465332, 0.853027
4971, 0.00489029, -14, 5, 9, 9, -0.408691, -0.465332, 0.853027
4972, 0.00508199, -13, 0, 16, 0, -0.408691, -0.465332, 0.853027
4973, 0.0049559, -13, 0, 16, 0, -0.408691, -0.465332, 0.853027
4974, 0.00494857, -13, 0, 16, 0, -0.408691, -0.465332, 0.853027
4975, 0.00510765, -1, 3, -9, -1, -0.415039, -0.449707, 0.88623
4976, 0.00499146, -7, -3, -37, -7, -0.415039, -0.449707, 0.88623
4977, 0.00497936, -7, -3, -37, -7, -0.415039, -0.449707, 0.88623
4978, 0.00508639, -7, -3, -37, -7, -0.404785, -0.447754, 0.887695
4979, 0.00491998, 2, 3, -30, -7, -0.404785, -0.447754, 0.887695
4980, 0.00501052, 2, 3, -30, -7, -0.404785, -0.447754, 0.887695
4981, 0.00499219, -3, 6, 49, 14, -0.404785, -0.447754, 0.887695
4982, 0.00496507, -3, 6, 49, 14, -0.404785, -0.447754, 0.887695
4983, 0.00502115, -3, 6, 49, 14, -0.404785, -0.447754, 0.887695
4984, 0.00488773, -3, -2, -10, -6, -0.405273, -0.437012, 0.88916
4985, 0.00513661, -3, -2, -10, -6, -0.405273, -0.437012, 0.88916
4986, 0.00498376, -3, -2, -10, -6, -0.405273, -0.437012, 0.88916
4987, 0.00498413, -3, -2, -10, -6, -0.405273, -0.437012, 0.88916
4988, 0.00512304, -3, -2, -10, -6, -0.383301, -0.407715, 0.893555
4989, 0.00490716, -3, 1, 9, 5, -0.383301, -0.407715, 0.893555
4990, 0.00496214, -3, 1, 9, 5, -0.39209, -0.401855, 0.938477
4991, 0.0050479, 10, -3, -3, -1, -0.39209, -0.401855, 0.938477
4992, 0.00497533, 10, -3, -3, -1, -0.39209, -0.401855, 0.938477
4993, 0.00498266, -5, 0, 4, 3, -0.39209, -0.401855, 0.938477
4994, 0.00493318, 3, 0, 18, 0, -0.39209, -0.414062, 0.946777
4995, 0.00510032, 3, 0, 18, 0, -0.39209, -0.414062, 0.946777
4996, 0.00496067, -8, -2, -13, -6, -0.39209, -0.414062, 0.946777
4997, 0.00502518, -8, -2, -13, -6, -0.39209, -0.414062, 0.946777
4998, 0.00498376, -8, -2, -13, -6, -0.39209, -0.414062, 0.946777
4999, 0.00499696, 4, -1, 19, 4, -0.378418, -0.356445, 0.925293
5000, 0.00503654, 6, -4, 8, -5, -0.378418, -0.356445, 0.925293
5001, 0.0048639, 6, -4, 8, -5, -0.378418, -0.356445, 0.925293
5002, 0.00509702, 6, -4, 8, -5, -0.381348, -0.336914, 0.922363
5003, 0.00500355, 20, 3, 31, 1, -0.381348, -0.336914, 0.922363
5004, 0.00495114, 20, 3, 31, 1, -0.381348, -0.336914, 0.922363
5005, 0.00511058, -20, 0, -14, -2, -0.381348, -0.336914, 0.922363
5006, 0.00498156, 18, 0, 11, 5, -0.385742, -0.356445, 0.922852
5007, 0.00496543, 18, 0, 11, 5, -0.385742, -0.356445, 0.922852
5008, 0.00502555, -12, -4, -21, 1, -0.385742, -0.356445, 0.922852
5009, 0.00491192, -12, -4, -21, 1, -0.385742, -0.356445, 0.922852
5010, 0.00508749, -12, -4, -21, 1, -0.385742, -0.356445, 0.922852
5011, 0.00491375, -14, -5, -11, -8, -0.396973, -0.396973, 0.919922
5012, 0.0050479, 19, -2, 14, 3, -0.396973, -0.396973, 0.919922
5013, 0.00500062, 19, -2, 14, 3, -0.396973, -0.396973, 0.919922
5014, 0.00493758, -25, 5, -21, 0, -0.401367, -0.371094, 0.902832
5015, 0.0050468, -25, 5, -21, 0, -0.401367, -0.371094, 0.902832
5016, 0.00492438, -25, 5, -21, 0, -0.401367, -0.371094, 0.902832
5017, 0.00499219, 8, -2, 3, 1, -0.401367, -0.371094, 0.902832
5018, 0.00510765, -1, -7, 12, -1, -0.390137, -0.339355, 0.879883
5019, 0.00492585, -1, -7, 12, -1, -0.390137, -0.339355, 0.879883
5020, 0.00498633, -1, -7, 12, -1, -0.390137, -0.339355, 0.879883
5021, 0.00504974, 43, 3, 23, 6, -0.390137, -0.339355, 0.879883
5022, 0.00498889, 43, 3, 23, 6, -0.390137, -0.339355, 0.879883
5023, 0.00499146, -5, -3, -11, -6, -0.402832, -0.363281, 0.884277
5024, 0.00513477, -4, 4, 16, 0, -0.402832, -0.363281, 0.884277
5025, 0.00500135, -4, 4, 16, 0, -0.402832, -0.363281, 0.884277
5026, 0.00491449, -4, 4, 16, 0, -0.409668, -0.42041, 0.879395
5027, 0.00502591, 8, -1, -2, -2, -0.409668, -0.42041, 0.879395
5028, 0.00503104, 8, -1, -2, -2, -0.409668, -0.42041, 0.879395
5029, 0.00495004, -28, -1, 5, 1, -0.409668, -0.42041, 0.879395
5030, 0.00499329, -8, 4, -3, -1, -0.415039, -0.419434, 0.867188
5031, 0.00502151, -8, 4, -3, -1, -0.415039, -0.419434, 0.867188
5032, 0.00495151, -5, 1, -5, -7, -0.415039, -0.419434, 0.867188
5033, 0.00502884, -5, 1, -5, -7, -0.415039, -0.419434, 0.867188
5034, 0.00502335, -5, 1, -5, -7, -0.415039, -0.419434, 0.867188
5035, 0.00499292, -15, -2, -29, -4, -0.40625, -0.405762, 0.856934
5036, 0.00504387, 1, -1, -25, -8, -0.40625, -0.405762, 0.856934
5037, 0.004968, 1, -1, -25, -8, -0.40625, -0.405762, 0.856934
5038, 0.00490019, 1, -1, -25, -8, -0.407227, -0.399902, 0.854004
5039, 0.00511388, 14, 0, 15, 3, -0.407227, -0.399902, 0.854004
5040, 0.00499146, 14, 0, 15, 3, -0.407227, -0.399902, 0.854004
5041, 0.00498999, -9, -2, -13, -6, -0.407227, -0.399902, 0.854004
5042, 0.00503984, -6, -2, -26, 4, -0.416016, -0.447754, 0.847168
5043, 0.00495554, -6, -2, -26, 4, -0.416016, -0.447754, 0.847168
5044, 0.00493171, -6, -2, -26, 4, -0.416016, -0.447754, 0.847168
5045, 0.00511351, 0, 1, 1, 0, -0.416016, -0.447754, 0.847168
5046, 0.00493098, 0, 1, 1, 0, -0.416016, -0.447754, 0.847168
5047, 0.00500575, -12, 3, 8, 2, -0.412109, -0.45459, 0.839355
5048, 0.00504607, -15, 1, -19, -4, -0.412109, -0.45459, 0.839355
5049, 0.00498779, -15, 1, -19, -4, -0.412109, -0.45459, 0.839355
5050, 0.00494711, -15, 1, -19, -4, -0.415039, -0.442871, 0.830078
5051, 0.00502848, -1, -1, -5, 1, -0.415039, -0.442871, 0.830078
5052, 0.00501821, -1, -1, -5, 1, -0.415039, -0.442871, 0.830078
5053, 0.0049669, 3, -6, 13, 2, -0.415039, -0.442871, 0.830078
5054, 0.0049537, -2, -3, 15, 7, -0.411133, -0.444824, 0.834961
5055, 0.00508419, -2, -3, 15, 7, -0.411133, -0.444824, 0.834961
5056, 0.00495004, -2, -3, 15, 7, -0.411133, -0.444824, 0.834961
5057, 0.00501748, 2, -1, -1, -3, -0.411133, -0.444824, 0.834961
5058, 0.00491045, 2, -1, -1, -3, -0.411133, -0.444824, 0.834961
5059, 0.00512927, 7, 5, 6, -3, -0.413086, -0.480469, 0.851562
5060, 0.00496287, -9, -3, -2, 4, -0.413086, -0.480469, 0.851562
5061, 0.00510252, -9, -3, -2, 4, -0.413086, -0.480469, 0.851562
5062, 0.00494088, -9, -3, -2, 4, -0.405762, -0.475586, 0.828613
5063, 0.0049735, -2, -1, 6, 1, -0.405762, -0.475586, 0.828613
5064, 0.00496214, -2, -1, 6, 1, -0.405762, -0.475586, 0.828613
5065, 0.00503874, -1, -3, -8, 1, -0.405762, -0.475586, 0.828613
5066, 0.00497057, 5, -1, 16, -3, -0.393555, -0.416016, 0.819336
5067, 0.00502408, 5, -1, 16, -3, -0.393555, -0.416016, 0.819336
5068, 0.00499696, 5, -1, 16, -3, -0.393555, -0.416016, 0.819336
5069, 0.00503398, 2, -2, 0, -1, -0.393555, -0.416016, 0.819336
5070, 0.00503874, 2, -2, 0, -1, -0.393555, -0.416016, 0.819336
5071, 0.00490935, 1, 0, -19, -7, -0.408203, -0.408691, 0.841309
5072, 0.00499586, 1, -3, 11, -7, -0.408203, -0.408691, 0.841309
5073, 0.00497423, 1, -3, 11, -7, -0.408203, -0.408691, 0.841309
5074, 0.00529018, 1, -3, 11, -7, -0.408203, -0.408691, 0.841309
5075, 0.0048727, 2, 5, 12, 13, -0.411621, -0.470703, 0.896484
5076, 0.00485767, 2, 5, 12, 13, -0.411621, -0.470703, 0.896484
5077, 0.0050721, -11, 4, 8, 1, -0.411621, -0.470703, 0.896484
5078, 0.00488516, -1, 0, -13, -4, -0.42334, -0.466797, 0.891602
5079, 0.00511351, -1, 0, -13, -4, -0.42334, -0.466797, 0.891602
5080, 0.00493794, -1, 0, -13, -4, -0.42334, -0.466797, 0.891602
5081, 0.00503911, -11, -2, -13, -3, -0.42334, -0.466797, 0.891602
5082, 0.00499219, -11, -2, -13, -3, -0.42334, -0.466797, 0.891602
5083, 0.00498743, -13, -7, 11, 0, -0.417969, -0.413574, 0.888672
5084, 0.00508639, 2, -3, -5, -3, -0.417969, -0.413574, 0.888672
5085, 0.00492841, 2, -3, -5, -3, -0.417969, -0.413574, 0.888672
5086, 0.0049658, 2, -3, -5, -3, -0.417969, -0.413574, 0.888672
5087, 0.00503361, 0, -2, -26, -6, -0.397949, -0.382812, 0.892578
5088, 0.00491998, 0, -2, -26, -6, -0.397949, -0.382812, 0.892578
5089, 0.00508749, 7, 1, 16, 10, -0.397949, -0.382812, 0.892578
5090, 0.00498339, -6, 0, -28, -7, -0.399414, -0.404785, 0.88916
5091, 0.00503178, -6, 0, -28, -7, -0.399414, -0.404785, 0.88916
5092, 0.00493648, -6, 0, -28, -7, -0.399414, -0.404785, 0.88916
5093, 0.00501638, 0, 4, 1, 3, -0.399414, -0.404785, 0.88916
5094, 0.00493208, 14, -1, 15, 0, -0.399414, -0.404785, 0.88916
5095, 0.00507429, 6, -1, 8, -2, -0.393066, -0.387207, 0.911133
5096, 0.00498523, -10, -5, -7, -4, -0.393066, -0.387207, 0.911133
5097, 0.00503031, -10, -5, -7, -4, -0.393066, -0.387207, 0.911133
5098, 0.00492365, -10, -5, -7, -4, -0.393066, -0.387207, 0.911133
5099, 0.00516996, 4, -2, 19, 9, -0.397949, -0.40625, 0.924316
5100, 0.00489213, 4, -2, 19, 9, -0.397949, -0.40625, 0.924316
5101, 0.00499696, 2, 2, 6, 4, -0.397949, -0.40625, 0.924316
5102, 0.00501455, -4, -4, 0, 4, -0.400391, -0.386719, 0.933105
5103, 0.00497826, -4, -4, 0, 4, -0.400391, -0.386719, 0.933105
5104, 0.004979, -4, -4, 0, 4, -0.400391, -0.386719, 0.933105
5105, 0.00510178, 7, 1, -3, -15, -0.400391, -0.386719, 0.933105
5106, 0.00493978, 7, 1, -3, -15, -0.400391, -0.386719, 0.933105
5107, 0.00498743, -2, 1, -25, -2, -0.393555, -0.352539, 0.916504
5108, 0.00503141, 0, 2, 0, 0, -0.393555, -0.352539, 0.916504
5109, 0.0049768, 0, 2, 0, 0, -0.393555, -0.352539, 0.916504
5110, 0.00503251, 0, 2, 0, 0, -0.393555, -0.352539, 0.916504
5111, 0.00493941, 6, 3, 24, 0, -0.379883, -0.321777, 0.897461
5112, 0.00507319, 6, 3, 24, 0, -0.379883, -0.321777, 0.897461
5113, 0.00494637, -5, -5, -7, 2, -0.379883, -0.321777, 0.897461
5114, 0.00499512, 2, -4, 10, 0, -0.37793, -0.322266, 0.918945
5115, 0.00505157, 2, -4, 10, 0, -0.37793, -0.322266, 0.918945
5116, 0.00493648, 2, -4, 10, 0, -0.37793, -0.322266, 0.918945
5117, 0.00502518, 3, -4, -8, -4, -0.37793, -0.322266, 0.918945
5118, 0.00502298, 3, -4, -8, -4, -0.37793, -0.322266, 0.918945
5119, 0.00524803, 4, 1, 20, 1, -0.370605, -0.342773, 0.911621
5120, 0.00471876, -3, 5, -7, -1, -0.370605, -0.342773, 0.911621
5121, 0.00498486, -3, 5, -7, -1, -0.370605, -0.342773, 0.911621
5122, 0.00505817, -3, 5, -7, -1, -0.370605, -0.342773, 0.911621
5123, 0.00493868, 1, 3, 11, -1, -0.404297, -0.380859, 0.944336
5124, 0.00507503, 1, 3, 11, -1, -0.404297, -0.380859, 0.944336
5125, 0.00494564, -1, 0, 1, 0, -0.404297, -0.380859, 0.944336
5126, 0.00498889, -5, 0, -20, -13, -0.413574, -0.375, 0.932617
5127, 0.00502738, -5, 0, -20, -13, -0.413574, -0.375, 0.932617
5128, 0.00508492, -5, 0, -20, -13, -0.413574, -0.375, 0.932617
5129, 0.00490606, 0, -1, -4, 13, -0.413574, -0.375, 0.932617
5130, 0.00501821, 0, -1, -4, 13, -0.413574, -0.375, 0.932617
5131, 0.00500282, -4, -3, -18, -12, -0.386719, -0.310547, 0.923828
5132, 0.00497093, 1, -4, 12, 2, -0.386719, -0.310547, 0.923828
5133, 0.00498633, 1, -4, 12, 2, -0.386719, -0.310547, 0.923828
5134, 0.00490716, 1, -4, 12, 2, -0.386719, -0.310547, 0.923828
5135, 0.00511718, -6, 0, -8, -5, -0.374512, -0.283691, 0.930176
5136, 0.00499072, -6, 0, -8, -5, -0.374512, -0.283691, 0.930176
5137, 0.00499219, 4, 0, 9, 8, -0.374512, -0.283691, 0.930176
5138, 0.00517253, 1, 2, 6, 4, -0.410156, -0.318359, 0.951172
5139, 0.004865, 1, 2, 6, 4, -0.410156, -0.318359, 0.951172
5140, 0.0049603, 1, 2, 6, 4, -0.410156, -0.318359, 0.951172
5141, 0.0050556, 8, 5, -12, -4, -0.410156, -0.318359, 0.951172
5142, 0.00495041, 8, 5, -12, -4, -0.410156, -0.318359, 0.951172
5143, 0.00500612, -7, 5, 5, -2, -0.416992, -0.328613, 0.962891
5144, 0.00504351, -4, -8, -7, -5, -0.416992, -0.328613, 0.962891
5145, 0.00501821, -4, -8, -7, -5, -0.416992, -0.328613, 0.962891
5146, 0.00492475, -4, -8, -7, -5, -0.416992, -0.328613, 0.962891
5147, 0.00502555, 2, -5, 20, 0, -0.398438, -0.312988, 0.976074
5148, 0.00502994, 2, -5, 20, 0, -0.398438, -0.312988, 0.976074
5149, 0.00487014, -2, -4, -17, 0, -0.398438, -0.312988, 0.976074
5150, 0.00508749, 2, -2, 5, 0, -0.406738, -0.283203, 0.949219
5151, 0.00502335, 2, -2, 5, 0, -0.406738, -0.283203, 0.949219
5152, 0.00508163, 2, -2, 5, 0, -0.406738, -0.283203, 0.949219
5153, 0.00490056, 1, -1, 15, 0, -0.406738, -0.283203, 0.949219
5154, 0.0049592, -5, 1, -2, -1, -0.406738, -0.283203, 0.949219
5155, 0.00509959, 4, 6, 6, 0, -0.401855, -0.275879, 0.943848
5156, 0.00494527, -7, 2, -9, -1, -0.401855, -0.275879, 0.943848
5157, 0.00502518, -7, 2, -9, -1, -0.401855, -0.275879, 0.943848
5158, 0.00489836, -7, 2, -9, -1, -0.401855, -0.275879, 0.943848
5159, 0.00513367, 10, -3, -20, -5, -0.383789, -0.258789, 0.943848
5160, 0.00495517, 10, -3, -20, -5, -0.383789, -0.258789, 0.943848
5161, 0.00502041, -11, 5, -9, -5, -0.383789, -0.258789, 0.943848
5162, 0.00503618, -1, 0, -17, 4, -0.39209, -0.271973, 0.955078
5163, 0.00491412, -1, 0, -17, 4, -0.39209, -0.271973, 0.955078
5164, 0.00499366, -1, 0, -17, 4, -0.39209, -0.271973, 0.955078
5165, 0.00501308, 4, 2, 14, 2, -0.39209, -0.271973, 0.955078
5166, 0.00501052, 4, 2, 14, 2, -0.39209, -0.271973, 0.955078
5167, 0.00492402, 1, 0, 7, 10, -0.392578, -0.274902, 0.956055
5168, 0.00507026, 1, 0, 7, -2, -0.392578, -0.274902, 0.956055
5169, 0.00503031, 1, 0, 7, -2, -0.392578, -0.274902, 0.956055
5170, 0.0049537, 1, 0, 7, -2, -0.392578, -0.274902, 0.956055
5171, 0.00512927, -1, -1, 6, 0, -0.387695, -0.259277, 0.944336
5172, 0.00494051, -1, -1, 6, 0, -0.387695, -0.259277, 0.944336
5173, 0.00495151, 5, -11, 11, 1, -0.387695, -0.259277, 0.944336
5174, 0.00501015, -3, -3, -7, 0, -0.380859, -0.270508, 0.954102
5175, 0.00504827, -3, -3, -7, 0, -0.380859, -0.270508, 0.954102
5176, 0.00492475, -3, -3, -7, 0, -0.380859, -0.270508, 0.954102
5177, 0.00501858, -18, 1, -22, -9, -0.380859, -0.270508, 0.954102
5178, 0.00493904, -18, 1, -22, -9, -0.380859, -0.270508, 0.954102
5179, 0.00511315, -7, 1, -6, -4, -0.379883, -0.283691, 0.955078
5180, 0.00494857, -10, 3, 6, 3, -0.379883, -0.283691, 0.955078
5181, 0.00502958, -10, 3, 6, 3, -0.379883, -0.283691, 0.955078
5182, 0.00494747, -10, 3, 6, 3, -0.379883, -0.283691, 0.955078
5183, 0.00499146, 1, 0, 18, 0, -0.374023, -0.271484, 0.944336
5184, 0.00504021, 1, 0, 18, 0, -0.374023, -0.271484, 0.944336
5185, 0.00498339, 11, -2, 4, 2, -0.374023, -0.271484, 0.944336
5186, 0.00500209, 0, -5, 3, 1, -0.376465, -0.262207, 0.941406
5187, 0.00503141, 0, -5, 3, 1, -0.376465, -0.262207, 0.941406
5188, 0.0050545, 0, -5, 3, 1, -0.376465, -0.262207, 0.941406
5189, 0.00491119, 9, -4, 5, 3, -0.376465, -0.262207, 0.941406
5190, 0.00583339, 9, -4, 5, 3, -0.376465, -0.262207, 0.941406
5191, 0.00518792, -6, -2, 11, 1, -0.384766, -0.293945, 0.962402
5192, 0.00498266, 1, 1, 5, 0, -0.384766, -0.293945, 0.962402
5193, 0.00499806, 1, 1, 5, 0, -0.384766, -0.293945, 0.962402
5194, 0.00505487, 1, 1, 5, 0, -0.384766, -0.293945, 0.962402
5195, 0.00498633, -1, 0, -3, -2, -0.385254, -0.311523, 0.966309
5196, 0.0049658, 1, 0, -10, -7, -0.385254, -0.311523, 0.966309
5197, 0.00497936, 1, 0, -10, -7, -0.385254, -0.311523, 0.966309
5198, 0.00499916, -9, -5, -6, 1, -0.379395, -0.287109, 0.944824
5199, 0.00509299, -9, -5, -6, 1, -0.379395, -0.287109, 0.944824
5200, 0.00524693, -9, -5, -6, 1, -0.379395, -0.287109, 0.944824
5201, 0.00467954, -4, -1, -6, -1, -0.379395, -0.287109, 0.944824
5202, 0.00500869, -4, -1, -6, -1, -0.379395, -0.287109, 0.944824
5203, 0.00495957, 2, 0, -11, -2, -0.374023, -0.274902, 0.937012
5204, 0.00500282, 0, -1, 0, -1, -0.374023, -0.274902, 0.937012
5205, 0.00508529, 0, -1, 0, -1, -0.374023, -0.274902, 0.937012
5206, 0.00492988, 0, -1, 0, -1, -0.374023, -0.274902, 0.937012
5207, 0.00503068, 3, -1, -7, -3, -0.376465, -0.291016, 0.945801
5208, 0.00501565, 0, -1, 4, 0, -0.376465, -0.291016, 0.945801
5209, 0.00494931, 0, -1, 4, 0, -0.376465, -0.291016, 0.945801
5210, 0.00501565, -2, 2, -8, -3, -0.383301, -0.31543, 0.949219
5211, 0.00494491, -2, 2, -8, -3, -0.383301, -0.31543, 0.949219
5212, 0.00510105, -2, 2, -8, -3, -0.383301, -0.31543, 0.949219
5213, 0.004957, 3, 1, 14, 3, -0.383301, -0.31543, 0.949219
5214, 0.00502371, 3, 1, 14, 3, -0.383301, -0.31543, 0.949219
5215, 0.00499696, -9, -2, -39, -11, -0.379395, -0.307129, 0.939453
5216, 0.0049779, 0, 0, 0, 4, -0.379395, -0.307129, 0.939453
5217, 0.00499219, 0, 0, 0, 4, -0.379395, -0.307129, 0.939453
5218, 0.00500612, 0, 0, 0, 4, -0.379395, -0.307129, 0.939453
5219, 0.00503214, 0, 0, 0, 4, -0.371582, -0.277832, 0.933105
5220, 0.00507393, -2, -3, 11, -2, -0.371582, -0.277832, 0.933105
5221, 0.00482249, -2, -6, 0, 0, -0.371582, -0.277832, 0.933105
5222, 0.0051388, 1, 0, -13, 2, -0.373535, -0.297363, 0.926758
5223, 0.00493245, 1, 0, -13, 2, -0.373535, -0.297363, 0.926758
5224, 0.00501382, 1, 0, -13, 2, -0.373535, -0.297363, 0.926758
5225, 0.0049768, 5, 1, 0, -5, -0.373535, -0.297363, 0.926758
5226, 0.00504021, 5, 1, 0, -5, -0.373535, -0.297363, 0.926758
5227, 0.00488553, 7, -2, 31, 2, -0.383301, -0.314453, 0.937988
5228, 0.00513221, -6, -5, -15, -6, -0.383301, -0.314453, 0.937988
5229, 0.00502225, -6, -5, -15, -6, -0.383301, -0.314453, 0.937988
5230, 0.00492328, -6, -5, -15, -6, -0.383301, -0.314453, 0.937988
5231, 0.00499072, 3, 1, 15, 4, -0.384277, -0.337891, 0.957031
5232, 0.00504204, -9, 1, -26, -4, -0.384277, -0.337891, 0.957031
5233, 0.00507943, -9, 1, -26, -4, -0.384277, -0.337891, 0.957031
