Frame, Time_def, Emg1, Emg2, Emg3, Emg4, AccX, AccY, AccZ
6191, 0.00585281, 1, 0, -2, -4, -0.275391, 0.0605469, 1.02051
6192, 0.00531401, 2, -2, 0, -2, -0.275391, 0.0605469, 1.02051
6193, 0.00475211, -1, 1, 1, -3, -0.275391, 0.0605469, 1.02051
6194, 0.00498963, -1, 1, 1, -3, -0.275391, 0.0605469, 1.02051
6195, 0.00504094, -2, -3, 0, 1, -0.282715, 0.0595703, 1.02393
6196, 0.00506257, -2, -3, 0, 1, -0.282715, 0.0595703, 1.02393
6197, 0.00490569, -2, -3, 0, 1, -0.282715, 0.0595703, 1.02393
6198, 0.004979, -7, -3, 0, -2, -0.282227, 0.059082, 1.03174
6199, 0.00501455, 1, 5, 0, 0, -0.282227, 0.059082, 1.03174
6200, 0.00503471, 1, 5, 0, 0, -0.282227, 0.059082, 1.03174
6201, 0.00494527, 1, 0, 1, 1, -0.282227, 0.059082, 1.03174
6202, 0.00494857, 1, 0, 1, 1, -0.284668, 0.0620117, 1.03418
6203, 0.00509116, 1, 0, 1, 1, -0.284668, 0.0620117, 1.03418
6204, 0.0049713, -3, 1, -5, -4, -0.284668, 0.0620117, 1.03418
6205, 0.00501418, 1, -6, 0, 3, -0.284668, 0.0620117, 1.03418
6206, 0.00500062, 1, -6, 0, 3, -0.284668, 0.0620117, 1.03418
6207, 0.00498339, -2, -5, 0, 2, -0.273926, 0.0610352, 1.03174
6208, 0.00503727, -2, -5, 0, 2, -0.273926, 0.0610352, 1.03174
6209, 0.00509702, -2, -5, 0, 2, -0.273926, 0.0610352, 1.03174
6210, 0.00487673, -2, 1, 0, -2, -0.275391, 0.0634766, 1.02441
6211, 0.00500099, -1, 2, -4, -4, -0.275391, 0.0634766, 1.02441
6212, 0.00504351, -1, 2, -4, -4, -0.275391, 0.0634766, 1.02441
6213, 0.00495151, -3, 0, 3, 6, -0.275391, 0.0634766, 1.02441
6214, 0.00493135, -3, 0, 3, 6, -0.283691, 0.0629883, 1.02148
6215, 0.00507503, -3, 0, 3, 6, -0.283691, 0.0629883, 1.02148
6216, 0.00500025, -4, -3, -4, -4, -0.283691, 0.0629883, 1.02148
6217, 0.00498596, -4, -3, -4, -4, -0.283691, 0.0629883, 1.02148
6218, 0.00501345, -4, -3, -4, -4, -0.283691, 0.0629883, 1.02148
6219, 0.00492621, 0, -6, 2, 5, -0.283691, 0.0629883, 1.02148
6220, 0.00501675, 0, -6, 2, 5, -0.283691, 0.0629883, 1.02148
6221, 0.00498853, 1, -7, 2, 3, -0.282227, 0.0625, 1.02637
6222, 0.00518792, 4, -9, -3, -7, -0.277832, 0.0581055, 1.03076
6223, 0.00495664, -3, -3, -1, -2, -0.277832, 0.0581055, 1.03076
6224, 0.00486024, -3, -3, -1, -2, -0.277832, 0.0581055, 1.03076
6225, 0.00499109, -1, 4, 2, 2, -0.277832, 0.0581055, 1.03076
6226, 0.00501455, -1, 4, 2, 2, -0.276367, 0.0615234, 1.03125
6227, 0.00504974, -1, 4, 2, 2, -0.276367, 0.0615234, 1.03125
6228, 0.00501931, 0, 8, -1, -2, -0.276367, 0.0615234, 1.03125
6229, 0.00503288, 0, 6, -4, -5, -0.276367, 0.0615234, 1.03125
6230, 0.00495334, 0, 6, -4, -5, -0.276367, 0.0615234, 1.03125
6231, 0.00498999, -1, -5, -3, 0, -0.275879, 0.0654297, 1.02393
6232, 0.00504204, -1, -5, -3, 0, -0.275879, 0.0654297, 1.02393
6233, 0.00495884, -1, -5, -3, 0, -0.275879, 0.0654297, 1.02393
6234, 0.00501895, -2, 4, -1, -3, -0.274902, 0.0595703, 1.02246
6235, 0.00490459, 1, -5, 0, 0, -0.274902, 0.0595703, 1.02246
6236, 0.0051421, 1, -5, 0, 0, -0.274902, 0.0595703, 1.02246
6237, 0.00494637, 2, -5, 1, -2, -0.274902, 0.0595703, 1.02246
6238, 0.00499916, 2, -5, 1, -2, -0.283203, 0.0566406, 1.02637
6239, 0.00502738, 2, -5, 1, -2, -0.283203, 0.0566406, 1.02637
6240, 0.00497753, 1, 12, 6, 5, -0.283203, 0.0566406, 1.02637
6241, 0.00506073, -2, 1, -4, -8, -0.283203, 0.0566406, 1.02637
6242, 0.00489616, -2, 1, -4, -8, -0.283203, 0.0566406, 1.02637
6243, 0.00503508, -1, -8, -3, -1, -0.28418, 0.0566406, 1.02295
6244, 0.00502811, -1, -8, -3, -1, -0.28418, 0.0566406, 1.02295
6245, 0.00497936, -1, -8, -3, -1, -0.28418, 0.0566406, 1.02295
6246, 0.00498999, -3, 2, -3, -1, -0.27832, 0.0620117, 1.0249
6247, 0.00501565, -8, -10, 0, 0, -0.27832, 0.0620117, 1.0249
6248, 0.00498706, -8, -10, 0, 0, -0.27832, 0.0620117, 1.0249
6249, 0.00503434, 1, -8, 0, 1, -0.27832, 0.0620117, 1.0249
6250, 0.00496507, 1, -8, 0, 1, -0.268066, 0.0566406, 1.02588
6251, 0.00499036, 1, -8, 0, 1, -0.268066, 0.0566406, 1.02588
6252, 0.00508492, 0, -2, 1, 1, -0.268066, 0.0566406, 1.02588
6253, 0.00495847, -2, 1, -3, -3, -0.268066, 0.0566406, 1.02588
6254, 0.0049757, -2, 1, -3, -3, -0.268066, 0.0566406, 1.02588
6255, 0.00505963, 3, -4, 4, 3, -0.277344, 0.0551758, 1.02197
6256, 0.00495407, 3, -4, 4, 3, -0.277344, 0.0551758, 1.02197
6257, 0.00501162, 3, -4, 4, 3, -0.277344, 0.0551758, 1.02197
6258, 0.00500465, -2, -5, -1, 0, -0.283691, 0.0576172, 1.02783
6259, 0.00493648, 0, -7, -6, -2, -0.283691, 0.0576172, 1.02783
6260, 0.00507319, 0, -7, -6, -2, -0.283691, 0.0576172, 1.02783
6261, 0.00493794, -2, -8, 2, 6, -0.283691, 0.0576172, 1.02783
6262, 0.005049, -2, -8, 2, 6, -0.282227, 0.0561523, 1.03613
6263, 0.00503361, -2, -8, 2, 6, -0.282227, 0.0561523, 1.03613
6264, 0.00493904, 1, 5, -2, -4, -0.282227, 0.0561523, 1.03613
6265, 0.00506403, -2, -7, 2, 0, -0.282227, 0.0561523, 1.03613
6266, 0.00493501, -2, -7, 2, 0, -0.282227, 0.0561523, 1.03613
6267, 0.00499146, -2, -3, 0, 0, -0.275879, 0.0629883, 1.03076
6268, 0.00500135, -2, -3, 0, 0, -0.275879, 0.0629883, 1.03076
6269, 0.0049801, -2, -3, 0, 0, -0.275879, 0.0629883, 1.03076
6270, 0.00502958, 2, -8, 4, 0, -0.272949, 0.0556641, 1.0293
6271, 0.00495004, 1, -6, 0, 1, -0.272949, 0.0556641, 1.0293
6272, 0.00507833, 1, -6, 0, 1, -0.272949, 0.0556641, 1.0293
6273, 0.0049658, -2, 1, 0, 0, -0.272949, 0.0556641, 1.0293
6274, 0.0050688, -2, 1, 0, 0, -0.279785, 0.0561523, 1.03125
6275, 0.00485181, -2, 1, 0, 0, -0.279785, 0.0561523, 1.03125
6276, 0.00520441, -1, -10, -1, -2, -0.279785, 0.0561523, 1.03125
6277, 0.00487893, 0, -5, -6, -1, -0.279785, 0.0561523, 1.03125
6278, 0.00489726, 0, -5, -6, -1, -0.279785, 0.0561523, 1.03125
6279, 0.00510142, 0, -8, 1, 1, -0.280273, 0.059082, 1.02148
6280, 0.00501308, 0, -8, 1, 1, -0.280273, 0.059082, 1.02148
6281, 0.00505267, 0, -8, 1, 1, -0.280273, 0.059082, 1.02148
6282, 0.00497276, -2, -5, -4, -4, -0.272461, 0.0576172, 1.01807
6283, 0.0049779, -1, -3, -9, -6, -0.272461, 0.0576172, 1.01807
6284, 0.00498669, -1, -3, -9, -6, -0.272461, 0.0576172, 1.01807
6285, 0.00490386, 0, -6, -3, 3, -0.272461, 0.0576172, 1.01807
6286, 0.00520258, 0, -6, -3, 3, -0.275879, 0.0566406, 1.02539
6287, 0.00489359, 0, -6, -3, 3, -0.275879, 0.0566406, 1.02539
6288, 0.00511131, 0, -5, -2, -1, -0.275879, 0.0566406, 1.02539
6289, 0.00478363, 0, -6, 0, -2, -0.275879, 0.0566406, 1.02539
6290, 0.00510362, 0, -6, 0, -2, -0.275879, 0.0566406, 1.02539
6291, 0.00499439, 0, -6, 0, -2, -0.273438, 0.0493164, 1.02539
6292, 0.00491705, -1, -4, 4, 3, -0.273438, 0.0493164, 1.02539
6293, 0.00513661, -1, -4, 4, 3, -0.273438, 0.0493164, 1.02539
6294, 0.0049537, -2, -3, 2, -2, -0.271973, 0.0595703, 1.02344
6295, 0.00504644, 0, 0, 0, -1, -0.271973, 0.0595703, 1.02344
6296, 0.004957, 0, 0, 0, -1, -0.271973, 0.0595703, 1.02344
6297, 0.00498559, 0, 1, -4, -2, -0.271973, 0.0595703, 1.02344
6298, 0.00501235, 0, 1, -4, -2, -0.269531, 0.0576172, 1.02441
6299, 0.00488626, 0, 1, -4, -2, -0.269531, 0.0576172, 1.02441
6300, 0.00511315, 0, -12, -3, -2, -0.269531, 0.0576172, 1.02441
6301, 0.00599319, -3, 2, -3, -4, -0.269531, 0.0576172, 1.02441
6302, 0.00495297, -3, 2, -3, -4, -0.269531, 0.0576172, 1.02441
6303, 0.005071, 0, 8, 2, 4, -0.269531, 0.0610352, 1.02783
6304, 0.00504387, 0, 8, 2, 4, -0.269531, 0.0610352, 1.02783
6305, 0.00493684, 0, 8, 2, 4, -0.269531, 0.0610352, 1.02783
6306, 0.00500355, 0, 6, 2, -4, -0.271973, 0.065918, 1.04004
6307, 0.0049636, -1, 0, -7, -8, -0.271973, 0.065918, 1.04004
6308, 0.00506147, -1, 0, -7, -8, -0.271973, 0.065918, 1.04004
6309, 0.00503141, 3, 8, 0, 2, -0.271973, 0.065918, 1.04004
6310, 0.00501675, 3, 8, 0, 2, -0.272461, 0.0683594, 1.04248
6311, 0.00492988, 3, 8, 0, 2, -0.272461, 0.0683594, 1.04248
6312, 0.00492805, 3, 8, 0, 2, -0.272461, 0.0683594, 1.04248
6313, 0.00511571, 1, 4, 0, 1, -0.272461, 0.0683594, 1.04248
6314, 0.00495407, 1, 4, 0, 1, -0.272461, 0.0683594, 1.04248
6315, 0.00499769, -2, 2, -3, 0, -0.277832, 0.0742188, 1.04785
6316, 0.00504607, -2, 2, -3, 0, -0.277832, 0.0742188, 1.04785
6317, 0.00494271, -2, 2, -3, 0, -0.277832, 0.0742188, 1.04785
6318, 0.00500539, -2, 10, 6, 6, -0.26416, 0.0791016, 1.06055
6319, 0.0050589, -1, -1, 0, 0, -0.26416, 0.0791016, 1.06055
6320, 0.00498779, -1, -1, 0, 0, -0.26416, 0.0791016, 1.06055
6321, 0.00496214, -1, 1, -5, -3, -0.26416, 0.0791016, 1.06055
6322, 0.00503508, -1, 1, -5, -3, -0.240234, 0.0957031, 1.07861
6323, 0.00497313, -1, 1, -5, -3, -0.240234, 0.0957031, 1.07861
6324, 0.00499146, 0, 7, 3, -4, -0.240234, 0.0957031, 1.07861
6325, 0.00500942, -4, -10, 4, 1, -0.240234, 0.0957031, 1.07861
6326, 0.00504717, -4, -10, 4, 1, -0.240234, 0.0957031, 1.07861
6327, 0.00493428, -1, -4, -4, -5, -0.236816, 0.102539, 1.07812
6328, 0.00503727, -1, -4, -4, -5, -0.236816, 0.102539, 1.07812
6329, 0.00497386, -1, -4, -4, -5, -0.236816, 0.102539, 1.07812
6330, 0.00502774, -2, 0, 1, -1, -0.221191, 0.119141, 1.08545
6331, 0.00496543, -3, 11, 6, 0, -0.221191, 0.119141, 1.08545
6332, 0.00503324, -3, 11, 6, 0, -0.221191, 0.119141, 1.08545
6333, 0.0049702, 0, -6, -3, 1, -0.221191, 0.119141, 1.08545
6334, 0.00502921, 0, -6, -3, 1, -0.21582, 0.132812, 1.10791
6335, 0.00491522, 0, -6, -3, 1, -0.21582, 0.132812, 1.10791
6336, 0.00512598, -2, -5, 0, 0, -0.21582, 0.132812, 1.10791
6337, 0.00498633, 1, -6, -2, -2, -0.21582, 0.132812, 1.10791
6338, 0.00497643, 1, -6, -2, -2, -0.21582, 0.132812, 1.10791
6339, 0.00496104, 0, -7, -3, 0, -0.177246, 0.164062, 1.13477
6340, 0.00500465, 0, -7, -3, 0, -0.177246, 0.164062, 1.13477
6341, 0.00505157, 0, -7, -3, 0, -0.177246, 0.164062, 1.13477
6342, 0.00490862, -2, 9, -8, -6, -0.177246, 0.164062, 1.13477
6343, 0.00507466, 0, -4, 0, 0, -0.15625, 0.181641, 1.16357
6344, 0.00498596, 0, -4, 0, 0, -0.15625, 0.181641, 1.16357
6345, 0.00498083, 3, 6, -1, 2, -0.15625, 0.181641, 1.16357
6346, 0.00499806, 3, 6, -1, 2, -0.127441, 0.226074, 1.19385
6347, 0.00500832, 3, 6, -1, 2, -0.127441, 0.226074, 1.19385
6348, 0.00496397, 0, -1, -6, -11, -0.127441, 0.226074, 1.19385
6349, 0.00499549, 1, -5, 6, 1, -0.127441, 0.226074, 1.19385
6350, 0.0050556, 1, -5, 6, 1, -0.127441, 0.226074, 1.19385
6351, 0.00502261, -1, -16, 0, 2, -0.145996, 0.250977, 1.21338
6352, 0.00494124, -1, -16, 0, 2, -0.145996, 0.250977, 1.21338
6353, 0.00506073, -1, -16, 0, 2, -0.145996, 0.250977, 1.21338
6354, 0.00497643, -10, -28, -8, -6, -0.145996, 0.250977, 1.21338
6355, 0.00498889, 0, -8, 1, 2, -0.11377, 0.275879, 1.21777
6356, 0.0049746, 0, -8, 1, 2, -0.11377, 0.275879, 1.21777
6357, 0.00500465, 1, -16, 2, 2, -0.11377, 0.275879, 1.21777
6358, 0.00503288, 1, -16, 2, 2, -0.09375, 0.27832, 1.21631
6359, 0.00502958, 1, -16, 2, 2, -0.09375, 0.27832, 1.21631
6360, 0.0049658, 1, -11, 2, 7, -0.09375, 0.27832, 1.21631
6361, 0.00499696, 1, 0, -1, 1, -0.09375, 0.27832, 1.21631
6362, 0.00500942, 1, 0, -1, 1, -0.09375, 0.27832, 1.21631
6363, 0.0049691, 1, 43, -1, -9, -0.0859375, 0.317871, 1.21533
6364, 0.0050589, 1, 43, -1, -9, -0.0859375, 0.317871, 1.21533
6365, 0.00494124, 1, 43, -1, -9, -0.0859375, 0.317871, 1.21533
6366, 0.00501125, -5, 45, -7, -6, -0.0859375, 0.317871, 1.21533
6367, 0.00499329, -5, 45, -7, -6, -0.0859375, 0.317871, 1.21533
6368, 0.00491998, -5, 45, -7, -6, -0.0859375, 0.317871, 1.21533
6369, 0.00516739, 0, -11, 7, 2, -0.0795898, 0.33252, 1.2041
6370, 0.00485987, 0, -11, 7, 2, -0.0737305, 0.345703, 1.15625
6371, 0.00506916, 0, -11, 7, 2, -0.0737305, 0.345703, 1.15625
6372, 0.00493245, -2, -55, -3, 0, -0.0737305, 0.345703, 1.15625
6373, 0.00512414, 1, -34, -6, -3, -0.0737305, 0.345703, 1.15625
6374, 0.00494454, 1, -34, -6, -3, -0.0737305, 0.345703, 1.15625
6375, 0.00502774, 1, -34, -6, -3, -0.120605, 0.358398, 1.11914
6376, 0.0050457, 2, -7, 4, 4, -0.120605, 0.358398, 1.11914
6377, 0.00492438, 2, -7, 4, 4, -0.120605, 0.358398, 1.11914
6378, 0.00504021, 0, -7, -1, -3, -0.120605, 0.358398, 1.11914
6379, 0.00498156, 2, 15, -2, 0, -0.0888672, 0.386719, 1.06738
6380, 0.00499769, 2, 15, -2, 0, -0.0888672, 0.386719, 1.06738
6381, 0.00498926, 2, 15, -2, 0, -0.0888672, 0.386719, 1.06738
6382, 0.00498486, 6, 7, 1, 1, -0.0786133, 0.401367, 1.03027
6383, 0.0049669, 6, 7, 1, 1, -0.0786133, 0.401367, 1.03027
6384, 0.00502591, 10, -33, -3, -1, -0.0786133, 0.401367, 1.03027
6385, 0.00495517, 16, -11, 4, 1, -0.0786133, 0.401367, 1.03027
6386, 0.00511498, 16, -11, 4, 1, -0.0786133, 0.401367, 1.03027
6387, 0.00493941, 16, -11, 4, 1, -0.105957, 0.401855, 0.992188
6388, 0.0052385, 10, 16, 5, -2, -0.105957, 0.401855, 0.992188
6389, 0.00477264, 10, 16, 5, -2, -0.105957, 0.401855, 0.992188
6390, 0.00500392, -13, 10, -5, -6, -0.105957, 0.401855, 0.992188
6391, 0.0049559, -16, -1, 3, 6, -0.155273, 0.401367, 0.946777
6392, 0.00505304, -16, -1, 3, 6, -0.155273, 0.401367, 0.946777
6393, 0.00490092, -16, -1, 3, 6, -0.155273, 0.401367, 0.946777
6394, 0.00510985, -19, -7, -14, -3, -0.210938, 0.443848, 0.925293
6395, 0.00499036, -19, -7, -14, -3, -0.210938, 0.443848, 0.925293
6396, 0.00503398, -16, -3, -4, -2, -0.210938, 0.443848, 0.925293
6397, 0.00494124, -9, 1, 3, 3, -0.210938, 0.443848, 0.925293
6398, 0.00491705, -9, 1, 3, 3, -0.210938, 0.443848, 0.925293
6399, 0.00495407, -9, 1, 3, 3, -0.255371, 0.447266, 0.878906
6400, 0.0050545, -6, -1, -1, 0, -0.255371, 0.447266, 0.878906
6401, 0.00511131, -6, -1, -1, 0, -0.255371, 0.447266, 0.878906
6402, 0.00491082, -6, -1, -1, 0, -0.255371, 0.447266, 0.878906
6403, 0.00506953, -1, -1, 2, 4, -0.255371, 0.447266, 0.878906
6404, 0.00498743, -1, -5, -1, 0, -0.256348, 0.431641, 0.876953
6405, 0.00509702, -1, -5, -1, 0, -0.256348, 0.431641, 0.876953
6406, 0.00490679, 1, -1, -3, -4, -0.289551, 0.477539, 0.871582
6407, 0.0049724, 1, -1, -3, -4, -0.289551, 0.477539, 0.871582
6408, 0.00502811, 0, 9, 0, 0, -0.289551, 0.477539, 0.871582
6409, 0.00495774, 0, 4, 2, 0, -0.289551, 0.477539, 0.871582
6410, 0.00507393, 0, 4, 2, 0, -0.289551, 0.477539, 0.871582
6411, 0.00496837, 0, 4, 2, 0, -0.212402, 0.541016, 0.885254
6412, 0.00491669, 5, 5, 0, -1, -0.212402, 0.541016, 0.885254
6413, 0.00508786, 5, 5, 0, -1, -0.212402, 0.541016, 0.885254
6414, 0.00497203, 6, 1, 0, -4, -0.212402, 0.541016, 0.885254
6415, 0.00501712, -2, -11, 4, -2, -0.215332, 0.544922, 0.900879
6416, 0.00498633, -2, -11, 4, -2, -0.215332, 0.544922, 0.900879
6417, 0.00499879, -2, -11, 4, -2, -0.215332, 0.544922, 0.900879
6418, 0.00498633, 2, -9, -13, -8, -0.264648, 0.558594, 0.932129
6419, 0.00512891, 2, -9, -13, -8, -0.264648, 0.558594, 0.932129
6420, 0.00495957, -7, -7, -5, -3, -0.264648, 0.558594, 0.932129
6421, 0.00493574, -5, -11, -3, -2, -0.264648, 0.558594, 0.932129
6422, 0.00502335, -5, -11, -3, -2, -0.264648, 0.558594, 0.932129
6423, 0.00496177, -5, -11, -3, -2, -0.287109, 0.628418, 0.984375
6424, 0.0050644, 11, 10, 17, -2, -0.287109, 0.628418, 0.984375
6425, 0.00517692, 11, 10, 17, -2, -0.287109, 0.628418, 0.984375
6426, 0.00484558, -20, -10, -6, -2, -0.287109, 0.628418, 0.984375
6427, 0.00584915, 6, 4, -8, -1, -0.304688, 0.635742, 1.00586
6428, 0.00509775, 6, 4, -8, -1, -0.304688, 0.635742, 1.00586
6429, 0.0048804, 6, 4, -8, -1, -0.304688, 0.635742, 1.00586
6430, 0.00511901, 11, -3, -3, -2, -0.318848, 0.602539, 0.967773
6431, 0.00532757, -19, 47, 24, 11, -0.318848, 0.602539, 0.967773
6432, 0.00471069, -19, 47, 24, 11, -0.318848, 0.602539, 0.967773
6433, 0.0048639, 15, 10, 10, 21, -0.318848, 0.602539, 0.967773
6434, 0.00510948, 15, 10, 10, 21, -0.390625, 0.538086, 1.11523
6435, 0.00498743, 15, 10, 10, 21, -0.390625, 0.538086, 1.11523
6436, 0.0050611, -32, -78, -92, -25, -0.390625, 0.538086, 1.11523
6437, 0.00489579, -58, 90, 55, 18, -0.390625, 0.538086, 1.11523
6438, 0.0050655, -58, 90, 55, 18, -0.390625, 0.538086, 1.11523
6439, 0.00496617, 5, -112, -64, -11, -0.598633, 0.388184, 1.28271
6440, 0.00500429, 5, -112, -64, -11, -0.598633, 0.388184, 1.28271
6441, 0.00499402, 5, -112, -64, -11, -0.598633, 0.388184, 1.28271
6442, 0.00504277, -2, 119, -100, -28, -0.78125, 0.23877, 1.58545
6443, 0.00498046, 21, -28, -10, 5, -0.78125, 0.23877, 1.58545
6444, 0.0049625, 21, -28, -10, 5, -0.78125, 0.23877, 1.58545
6445, 0.00492365, -2, -111, 32, -2, -0.78125, 0.23877, 1.58545
6446, 0.00511498, -2, -111, 32, -2, 0.124512, 0.365723, 1.35156
6447, 0.00489579, -2, -111, 32, -2, 0.124512, 0.365723, 1.35156
6448, 0.00510362, 113, -118, 112, 23, 0.124512, 0.365723, 1.35156
6449, 0.00487783, 7, -114, -75, -62, 0.124512, 0.365723, 1.35156
6450, 0.00507576, 7, -114, -75, -62, 0.124512, 0.365723, 1.35156
6451, 0.00508346, 51, 18, 57, 3, 0.506836, 1.53662, 0.55127
6452, 0.00487563, 51, 18, 57, 3, 0.506836, 1.53662, 0.55127
6453, 0.00503178, 51, 18, 57, 3, 0.506836, 1.53662, 0.55127
6454, 0.0050567, 78, 86, -127, 43, 1.2168, 2.69434, -2.28076
6455, 0.00493978, -76, 124, 5, -8, 1.2168, 2.69434, -2.28076
6456, 0.00504314, -76, 124, 5, -8, 1.2168, 2.69434, -2.28076
6457, 0.00489066, -30, -106, -83, -18, 1.2168, 2.69434, -2.28076
6458, 0.00544449, -30, -106, -83, -18, 1.2168, 2.69434, -2.28076
6459, 0.00484484, -30, -106, -83, -18, 1.2168, 2.69434, -2.28076
6460, 0.00484594, -28, -78, 0, -1, -0.0830078, 0.0141602, 1.19873
6461, 0.00497203, -4, 111, 29, 12, -0.0830078, 0.0141602, 1.19873
6462, 0.00501308, -4, 111, 29, 12, -0.0830078, 0.0141602, 1.19873
6463, 0.00500795, -15, 80, 3, 4, 0.319824, -1.83447, 0.756348
6464, 0.0049768, -15, 80, 3, 4, 0.319824, -1.83447, 0.756348
6465, 0.00499182, -15, 80, 3, 4, 0.319824, -1.83447, 0.756348
6466, 0.00497973, -47, 103, 10, 4, -0.090332, -1.61426, 1.25391
6467, 0.00502518, 34, -124, -13, -4, -0.090332, -1.61426, 1.25391
6468, 0.0049691, 34, -124, -13, -4, -0.090332, -1.61426, 1.25391
6469, 0.00500465, 22, -27, 10, 2, -0.090332, -1.61426, 1.25391
6470, 0.00494381, 22, -27, 10, 2, -0.459961, -1.03369, 0.915527
6471, 0.00501052, 22, -27, 10, 2, -0.459961, -1.03369, 0.915527
6472, 0.00496837, -2, 100, 33, 2, -0.459961, -1.03369, 0.915527
6473, 0.0051487, -4, -80, 9, 0, -0.459961, -1.03369, 0.915527
6474, 0.00493721, -4, -80, 9, 0, -0.459961, -1.03369, 0.915527
6475, 0.00520075, -16, 119, 19, 8, -0.17041, 0.129883, 0.87793
6476, 0.00483788, -16, 119, 19, 8, -0.17041, 0.129883, 0.87793
6477, 0.0048804, -16, 119, 19, 8, -0.17041, 0.129883, 0.87793
6478, 0.00515713, -16, 119, 19, 8, -0.17041, 0.129883, 0.87793
6479, 0.00490789, -16, 119, 19, 8, -0.17041, 0.129883, 0.87793
6480, 0.005049, -59, 14, -38, -15, -0.183594, 0.596191, 0.802734
6481, 0.00491412, -1, 59, 24, 7, -0.183594, 0.596191, 0.802734
6482, 0.00507613, -1, 59, 24, 7, -0.26416, 0.231934, 0.816406
6483, 0.00525316, -1, 59, 24, 7, -0.26416, 0.231934, 0.816406
6484, 0.00476237, -7, 44, -14, -6, -0.26416, 0.231934, 0.816406
6485, 0.00528175, -8, -3, 0, 2, -0.26416, 0.231934, 0.816406
6486, 0.00468357, -8, -3, 0, 2, -0.26416, 0.231934, 0.816406
6487, 0.00494857, 14, 17, 18, 5, -0.325195, -0.287109, 0.902344
6488, 0.00509372, 14, 17, 18, 5, -0.325195, -0.287109, 0.902344
6489, 0.00491229, 14, 17, 18, 5, -0.325195, -0.287109, 0.902344
6490, 0.0050611, 3, 13, -10, -3, -0.286133, -0.458984, 0.94873
6491, 0.00545182, -24, -2, -7, 0, -0.286133, -0.458984, 0.94873
6492, 0.00459194, -24, -2, -7, 0, -0.286133, -0.458984, 0.94873
6493, 0.00509482, -4, -12, -13, 1, -0.286133, -0.458984, 0.94873
6494, 0.00488443, -4, -12, -13, 1, -0.286133, -0.458984, 0.94873
6495, 0.00501382, -4, -12, -13, 1, -0.307129, -0.40625, 0.927734
6496, 0.00497936, 5, -19, 7, 5, -0.307129, -0.40625, 0.927734
6497, 0.0048859, -6, -16, 43, 8, -0.307129, -0.40625, 0.927734
6498, 0.00509665, -6, -16, 43, 8, -0.307129, -0.40625, 0.927734
6499, 0.00497936, -2, -1, -8, 0, -0.376953, -0.315918, 0.912109
6500, 0.0050457, -2, -1, -8, 0, -0.376953, -0.315918, 0.912109
6501, 0.00489726, -2, -1, -8, 0, -0.376953, -0.315918, 0.912109
6502, 0.00515823, -17, 12, 0, 2, -0.427246, -0.368164, 0.88623
6503, 0.00485364, 2, 18, 3, 2, -0.427246, -0.368164, 0.88623
6504, 0.00509739, 2, 18, 3, 2, -0.427246, -0.368164, 0.88623
6505, 0.0048881, 17, 12, -2, 0, -0.427246, -0.368164, 0.88623
6506, 0.00510252, 17, 12, -2, 0, -0.443359, -0.411621, 0.921875
6507, 0.00512561, 17, 12, -2, 0, -0.443359, -0.411621, 0.921875
6508, 0.00472352, 2, 4, -10, -5, -0.443359, -0.411621, 0.921875
6509, 0.00511938, -4, -9, -24, -3, -0.443359, -0.411621, 0.921875
6510, 0.00503471, -4, -9, -24, -3, -0.443359, -0.411621, 0.921875
6511, 0.00492035, -2, -11, -16, -6, -0.388672, -0.322754, 0.904785
6512, 0.00499329, -2, -11, -16, -6, -0.388672, -0.322754, 0.904785
6513, 0.00498303, -2, -11, -16, -6, -0.388672, -0.322754, 0.904785
6514, 0.00511021, 33, -9, -17, -6, -0.388672, -0.322754, 0.904785
6515, 0.00494527, 33, -9, -17, -6, -0.388672, -0.322754, 0.904785
6516, 0.00504204, 2, -15, -15, -3, -0.374023, -0.255371, 0.913574
6517, 0.00499659, 1, -2, -1, 3, -0.374023, -0.255371, 0.913574
6518, 0.00492402, 1, -2, -1, 3, -0.394043, -0.265137, 0.901855
6519, 0.00517436, 1, -2, -1, 3, -0.394043, -0.265137, 0.901855
6520, 0.0048859, 5, 0, 11, 0, -0.394043, -0.265137, 0.901855
6521, 0.00490166, -2, 2, 3, 2, -0.394043, -0.265137, 0.901855
6522, 0.00510765, -2, 2, 3, 2, -0.394043, -0.265137, 0.901855
6523, 0.00493904, -4, 2, -6, -2, -0.385254, -0.297363, 0.895508
6524, 0.00506147, -4, 2, -6, -2, -0.385254, -0.297363, 0.895508
6525, 0.0050523, -4, 2, -6, -2, -0.385254, -0.297363, 0.895508
6526, 0.00499329, -27, 7, 7, 0, -0.385254, -0.297363, 0.895508
6527, 0.00494271, -27, 7, 7, 0, -0.385254, -0.297363, 0.895508
6528, 0.00501528, 14, 6, -9, -4, -0.413574, -0.350586, 0.886719
6529, 0.00490129, 0, -1, 11, 1, -0.413574, -0.350586, 0.886719
6530, 0.00509262, 0, -1, 11, 1, -0.414062, -0.314941, 0.910645
6531, 0.00505487, 0, -1, 11, 1, -0.414062, -0.314941, 0.910645
6532, 0.00497423, 21, -3, 23, 0, -0.414062, -0.314941, 0.910645
6533, 0.00488626, 8, 7, -4, -2, -0.414062, -0.314941, 0.910645
6534, 0.00501785, 8, 7, -4, -2, -0.414062, -0.314941, 0.910645
6535, 0.00520551, 1, -8, -8, -6, -0.399902, -0.282715, 0.909668
6536, 0.00490935, 1, -8, -8, -6, -0.399902, -0.282715, 0.909668
6537, 0.00485767, 1, -8, -8, -6, -0.399902, -0.282715, 0.909668
6538, 0.00511974, -11, -11, 2, 1, -0.395996, -0.306152, 0.938477
6539, 0.00502298, -15, -2, -6, 0, -0.395996, -0.306152, 0.938477
6540, 0.00492915, -15, -2, -6, 0, -0.395996, -0.306152, 0.938477
6541, 0.00502518, 13, 0, -30, -9, -0.395996, -0.306152, 0.938477
6542, 0.00506843, 13, 0, -30, -9, -0.413086, -0.330078, 0.938477
6543, 0.00496947, 13, 0, -30, -9, -0.413086, -0.330078, 0.938477
6544, 0.00495444, -16, 0, -15, -4, -0.413086, -0.330078, 0.938477
6545, 0.00491778, -3, 5, -25, -6, -0.413086, -0.330078, 0.938477
6546, 0.00508199, -3, 5, -25, -6, -0.413086, -0.330078, 0.938477
6547, 0.00491155, 11, 6, 3, -1, -0.414062, -0.282227, 0.919922
6548, 0.00506, 11, 6, 3, -1, -0.414062, -0.282227, 0.919922
6549, 0.00494491, 11, 6, 3, -1, -0.414062, -0.282227, 0.919922
6550, 0.00509592, 2, 1, 27, 2, -0.394043, -0.19873, 0.922363
6551, 0.0049581, -11, -6, 0, 0, -0.394043, -0.19873, 0.922363
6552, 0.00498889, -11, -6, 0, 0, -0.394043, -0.19873, 0.922363
6553, 0.00499952, 1, -7, 10, 4, -0.394043, -0.19873, 0.922363
6554, 0.00509739, 1, -7, 10, 4, -0.378418, -0.174805, 0.935059
6555, 0.00489726, 1, -7, 10, 4, -0.378418, -0.174805, 0.935059
6556, 0.00505194, 1, -7, 10, 4, -0.378418, -0.174805, 0.935059
6557, 0.00490899, 1, -7, 10, 4, -0.378418, -0.174805, 0.935059
6558, 0.00498559, 14, -3, -9, 1, -0.378418, -0.174805, 0.935059
6559, 0.00512891, 6, 0, 11, 4, -0.385254, -0.229004, 0.955078
6560, 0.00500685, 6, 0, 11, 4, -0.385254, -0.229004, 0.955078
6561, 0.0049746, 6, 0, 11, 4, -0.385254, -0.229004, 0.955078
6562, 0.00501895, -10, 1, -13, 0, -0.385254, -0.229004, 0.955078
6563, 0.00508712, -10, 1, -13, 0, -0.385254, -0.229004, 0.955078
6564, 0.00490899, 1, 1, -1, 7, -0.391602, -0.250488, 0.951172
6565, 0.00492768, 1, 1, -1, 7, -0.391602, -0.250488, 0.951172
6566, 0.00507796, 1, 1, -1, 7, -0.391602, -0.250488, 0.951172
6567, 0.00501638, 5, -2, 9, -1, -0.397949, -0.248047, 0.943848
6568, 0.0048716, -18, -1, -27, -4, -0.397949, -0.248047, 0.943848
6569, 0.00521211, 1, -1, 12, 1, -0.397949, -0.248047, 0.943848
6570, 0.0048881, 1, -1, 12, 1, -0.397949, -0.248047, 0.943848
6571, 0.00501052, 1, -1, 12, 1, -0.396484, -0.239258, 0.962402
6572, 0.00491412, 7, 0, 9, 1, -0.396484, -0.239258, 0.962402
6573, 0.00509042, 7, 0, 9, 1, -0.396484, -0.239258, 0.962402
6574, 0.00497167, -12, -1, -24, -6, -0.400879, -0.227539, 0.953125
6575, 0.00497203, -25, 2, -36, -8, -0.400879, -0.227539, 0.953125
6576, 0.00508749, -25, 2, -36, -8, -0.400879, -0.227539, 0.953125
6577, 0.00483275, -25, 2, -36, -8, -0.400879, -0.227539, 0.953125
6578, 0.00511315, -25, 2, -36, -8, -0.400879, -0.227539, 0.953125
6579, 0.00500062, -1, 3, 18, 3, -0.397461, -0.234375, 0.952148
6580, 0.00500612, 11, 3, 35, 2, -0.397461, -0.234375, 0.952148
6581, 0.00490129, 17, 1, -10, -1, -0.397461, -0.234375, 0.952148
6582, 0.00511645, 17, 1, -10, -1, -0.397461, -0.234375, 0.952148
6583, 0.00489139, 17, 1, -10, -1, -0.396973, -0.229004, 0.942383
6584, 0.00511131, 17, 1, -10, -1, -0.396973, -0.229004, 0.942383
6585, 0.00526782, 0, 1, -7, -5, -0.396973, -0.229004, 0.942383
6586, 0.00474148, 2, 2, 12, 1, -0.40625, -0.24707, 0.931152
6587, 0.00494161, 2, -2, 10, 4, -0.40625, -0.24707, 0.931152
6588, 0.00503984, 2, -2, 10, 4, -0.40625, -0.24707, 0.931152
6589, 0.00488443, 2, -2, 10, 4, -0.40625, -0.24707, 0.931152
6590, 0.00511571, 2, -2, 10, 4, -0.40625, -0.24707, 0.931152
6591, 0.0054181, -13, -10, -1, -4, -0.408203, -0.235352, 0.932129
6592, 0.00463042, -1, -8, -5, -3, -0.408203, -0.235352, 0.932129
6593, 0.00492951, 6, 0, 8, 0, -0.408203, -0.235352, 0.932129
6594, 0.00503251, 6, 0, 8, 0, -0.408203, -0.235352, 0.932129
6595, 0.00496983, 6, 0, 8, 0, -0.401855, -0.246094, 0.941406
6596, 0.0050567, 4, -1, -31, -2, -0.401855, -0.246094, 0.941406
6597, 0.00492328, 4, -1, -31, -2, -0.401855, -0.246094, 0.941406
6598, 0.00502335, -4, 0, -2, 1, -0.396484, -0.259766, 0.944336
6599, 0.00497973, 1, 7, 10, 0, -0.396484, -0.259766, 0.944336
6600, 0.00502774, 1, 7, 10, 0, -0.396484, -0.259766, 0.944336
6601, 0.00490202, 1, 7, 10, 0, -0.396484, -0.259766, 0.944336
6602, 0.00512048, 1, 7, 10, 0, -0.396484, -0.259766, 0.944336
6603, 0.00492218, 34, 3, 6, 2, -0.403809, -0.26709, 0.927246
6604, 0.00506293, -4, 0, 3, 0, -0.403809, -0.26709, 0.927246
6605, 0.00510582, -18, -2, -8, -5, -0.403809, -0.26709, 0.927246
6606, 0.00487343, -18, -2, -8, -5, -0.403809, -0.26709, 0.927246
6607, 0.0049614, -18, -2, -8, -5, -0.400879, -0.262695, 0.945801
6608, 0.00493648, 7, -6, 8, 0, -0.400879, -0.262695, 0.945801
6609, 0.00505267, 7, -6, 8, 0, -0.400879, -0.262695, 0.945801
6610, 0.00508272, -11, -5, -37, -3, -0.402344, -0.237305, 0.943848
6611, 0.00488736, -2, -1, 11, 5, -0.402344, -0.237305, 0.943848
6612, 0.00513404, -2, -1, 11, 5, -0.402344, -0.237305, 0.943848
6613, 0.00486207, -2, -1, 11, 5, -0.402344, -0.237305, 0.943848
6614, 0.00509519, -2, -1, 11, 5, -0.402344, -0.237305, 0.943848
6615, 0.00558121, -5, 3, 19, 1, -0.401855, -0.241211, 0.956055
6616, 0.00435332, 3, -6, 4, -2, -0.401855, -0.241211, 0.956055
6617, 0.00510692, 3, -6, 4, -2, -0.401855, -0.241211, 0.956055
6618, 0.00489213, -5, -1, 0, -5, -0.401855, -0.241211, 0.956055
6619, 0.00506916, -5, -1, 0, -5, -0.409668, -0.258301, 0.964355
6620, 0.00492218, -20, -2, 16, 6, -0.409668, -0.258301, 0.964355
6621, 0.00509702, -20, -2, 16, 6, -0.409668, -0.258301, 0.964355
6622, 0.00499806, -12, 4, -5, 1, -0.409668, -0.260742, 0.960449
6623, 0.00493648, -1, 1, -5, -2, -0.409668, -0.260742, 0.960449
6624, 0.00606504, -1, 1, -5, -2, -0.409668, -0.260742, 0.960449
6625, 0.00567724, -1, 1, -5, -2, -0.409668, -0.260742, 0.960449
6626, 0.00426206, -3, -4, -8, -1, -0.409668, -0.260742, 0.960449
6627, 0.00500649, -3, -4, -8, -1, -0.397461, -0.241211, 0.959473
6628, 0.00501565, 5, -3, -7, -2, -0.397461, -0.241211, 0.959473
6629, 0.00502115, -3, 1, 9, 0, -0.397461, -0.241211, 0.959473
6630, 0.00500429, -3, 1, 9, 0, -0.397461, -0.241211, 0.959473
6631, 0.00491815, -3, 1, 9, 0, -0.394531, -0.236328, 0.948242
6632, 0.00509042, -4, -4, 0, -1, -0.394531, -0.236328, 0.948242
6633, 0.00498963, -4, -4, 0, -1, -0.394531, -0.236328, 0.948242
6634, 0.00499842, -4, -5, -22, -4, -0.401855, -0.23291, 0.952637
6635, 0.00499989, 4, 2, -39, -5, -0.401855, -0.23291, 0.952637
6636, 0.00501931, 4, 2, -39, -5, -0.401855, -0.23291, 0.952637
6637, 0.00499732, 4, 2, -39, -5, -0.401855, -0.23291, 0.952637
6638, 0.0049724, 12, 0, 13, -1, -0.401855, -0.23291, 0.952637
6639, 0.00493135, 12, 0, 13, -1, -0.38916, -0.244629, 0.968262
6640, 0.00512378, -8, 2, 4, -1, -0.38916, -0.244629, 0.968262
6641, 0.00484338, -9, 2, -9, -7, -0.38916, -0.244629, 0.968262
6642, 0.00516446, -9, 2, -9, -7, -0.38916, -0.244629, 0.968262
6643, 0.00494711, -9, 2, -9, -7, -0.395508, -0.258789, 0.955566
6644, 0.00500282, 2, -2, 6, 5, -0.395508, -0.258789, 0.955566
6645, 0.00504277, 2, -2, 6, 5, -0.395508, -0.258789, 0.955566
6646, 0.00495041, 0, -3, 14, 2, -0.383789, -0.206543, 0.927734
6647, 0.00500209, 4, -6, -14, -3, -0.383789, -0.206543, 0.927734
6648, 0.00500282, 4, -6, -14, -3, -0.383789, -0.206543, 0.927734
6649, 0.00499659, 4, -6, -14, -3, -0.383789, -0.206543, 0.927734
6650, 0.00499989, 4, -6, -14, -3, -0.383789, -0.206543, 0.927734
6651, 0.00496983, -13, 1, -18, -6, -0.369141, -0.20459, 0.930664
6652, 0.00518425, 49, 0, 4, -3, -0.369141, -0.20459, 0.930664
6653, 0.00489689, -5, 1, -13, -2, -0.369141, -0.20459, 0.930664
6654, 0.00496543, -5, 1, -13, -2, -0.369141, -0.20459, 0.930664
6655, 0.0049768, -5, 1, -13, -2, -0.388184, -0.241211, 0.953125
6656, 0.00501931, -7, 6, 7, -1, -0.388184, -0.241211, 0.953125
6657, 0.00489213, -7, 6, 7, -1, -0.388184, -0.241211, 0.953125
6658, 0.0051443, 11, 0, -16, -6, -0.388672, -0.272949, 0.951172
6659, 0.00501968, -6, -8, -11, -6, -0.388672, -0.272949, 0.951172
6660, 0.0049592, -6, -8, -11, -6, -0.388672, -0.272949, 0.951172
6661, 0.00498376, -6, -8, -11, -6, -0.388672, -0.272949, 0.951172
6662, 0.00498889, -14, -3, 21, 4, -0.388672, -0.272949, 0.951172
6663, 0.00491559, -14, -3, 21, 4, -0.382324, -0.240234, 0.948242
6664, 0.00507356, -17, -3, -40, -9, -0.382324, -0.240234, 0.948242
6665, 0.00507173, 20, -4, 11, 8, -0.382324, -0.240234, 0.948242
6666, 0.00493758, 20, -4, 11, 8, -0.382324, -0.240234, 0.948242
6667, 0.00499402, 20, -4, 11, 8, -0.37793, -0.226562, 0.953613
6668, 0.00495847, 5, 2, 27, 5, -0.37793, -0.226562, 0.953613
6669, 0.00510948, 5, 2, 27, 5, -0.37793, -0.226562, 0.953613
6670, 0.00493574, -19, -1, 29, 6, -0.37793, -0.226562, 0.953613
6671, 0.0050688, -19, -1, 29, 6, -0.386719, -0.250488, 0.964355
6672, 0.00488406, -10, -4, -9, -5, -0.386719, -0.250488, 0.964355
6673, 0.00500685, -10, -4, -9, -5, -0.386719, -0.250488, 0.964355
6674, 0.00504497, -3, -3, -7, 2, -0.386719, -0.250488, 0.964355
6675, 0.0049559, -3, -3, -7, 2, -0.386719, -0.262207, 0.979004
6676, 0.00507686, -14, -1, -19, -4, -0.386719, -0.262207, 0.979004
6677, 0.00497973, 5, -4, -26, -2, -0.386719, -0.262207, 0.979004
6678, 0.00502078, 5, -4, -26, -2, -0.386719, -0.262207, 0.979004
6679, 0.0049757, 5, -4, -26, -2, -0.384766, -0.241699, 0.963379
6680, 0.00498706, 51, 6, -17, 0, -0.384766, -0.241699, 0.963379
6681, 0.00503361, 51, 6, -17, 0, -0.384766, -0.241699, 0.963379
6682, 0.00499292, -35, 0, 0, -3, -0.384766, -0.241699, 0.963379
6683, 0.00501125, -35, 0, 0, -3, -0.381348, -0.236816, 0.957031
6684, 0.00487123, -14, 2, 6, -1, -0.381348, -0.236816, 0.957031
6685, 0.00504351, -14, 2, 6, -1, -0.381348, -0.236816, 0.957031
6686, 0.00508969, 6, 3, 13, 2, -0.381348, -0.236816, 0.957031
6687, 0.00491485, 6, 3, 13, 2, -0.376465, -0.244629, 0.961914
6688, 0.00505853, -8, 1, 23, 4, -0.376465, -0.244629, 0.961914
6689, 0.00502371, 14, -5, -11, -2, -0.376465, -0.244629, 0.961914
6690, 0.00497093, 14, -5, -11, -2, -0.376465, -0.244629, 0.961914
6691, 0.00492365, 14, -5, -11, -2, -0.374023, -0.251953, 0.962402
6692, 0.00516043, -22, 0, 1, 4, -0.374023, -0.251953, 0.962402
6693, 0.0049537, -22, 0, 1, 4, -0.374023, -0.251953, 0.962402
6694, 0.00498339, 16, 2, 4, -4, -0.374023, -0.251953, 0.962402
6695, 0.005049, 16, 2, 4, -4, -0.381836, -0.257324, 0.978516
6696, 0.00481039, 2, -2, 1, -2, -0.381836, -0.257324, 0.978516
6697, 0.00512708, 2, -2, 1, -2, -0.381836, -0.257324, 0.978516
6698, 0.00501125, -1, -3, 4, -2, -0.381836, -0.257324, 0.978516
6699, 0.00487527, -1, -3, 4, -2, -0.379395, -0.285156, 0.975586
6700, 0.00512744, 5, 3, 19, 0, -0.379395, -0.285156, 0.975586
6701, 0.00489323, -26, -4, -8, 0, -0.379395, -0.285156, 0.975586
6702, 0.00510655, -26, -4, -8, 0, -0.379395, -0.285156, 0.975586
6703, 0.00497313, -26, -4, -8, 0, -0.374023, -0.256348, 0.971191
6704, 0.00503288, 34, -5, 13, 2, -0.374023, -0.256348, 0.971191
6705, 0.00503947, 34, -5, 13, 2, -0.374023, -0.256348, 0.971191
6706, 0.00493318, 1, -1, 3, 2, -0.374023, -0.256348, 0.971191
6707, 0.00504424, 1, -1, 3, 2, -0.370117, -0.241211, 0.961426
6708, 0.00487967, -18, -1, 8, 0, -0.370117, -0.241211, 0.961426
6709, 0.00513441, -18, -1, 8, 0, -0.370117, -0.241211, 0.961426
6710, 0.00494161, -10, 1, 1, 2, -0.370117, -0.241211, 0.961426
6711, 0.00496617, -10, 1, 1, 2, -0.368164, -0.257324, 0.956543
6712, 0.00508786, 8, -1, 28, 2, -0.368164, -0.257324, 0.956543
6713, 0.00501272, -7, -3, -3, 1, -0.368164, -0.257324, 0.956543
6714, 0.00495957, -7, -3, -3, 1, -0.368164, -0.257324, 0.956543
6715, 0.00502408, -7, -3, -3, 1, -0.374512, -0.277832, 0.962402
6716, 0.00494014, 0, 0, -44, -3, -0.374512, -0.277832, 0.962402
6717, 0.00501455, 0, 0, -44, -3, -0.374512, -0.277832, 0.962402
6718, 0.00493574, 3, 0, 18, 2, -0.374512, -0.277832, 0.962402
6719, 0.00512121, 3, 0, 18, 2, -0.373047, -0.280762, 0.969727
6720, 0.00483935, -10, 0, -14, -3, -0.373047, -0.280762, 0.969727
6721, 0.00516373, -10, 0, -14, -3, -0.373047, -0.280762, 0.969727
6722, 0.00495994, 11, 0, -7, -1, -0.373047, -0.280762, 0.969727
6723, 0.0048848, 11, 0, -7, -1, -0.378418, -0.276855, 0.95459
6724, 0.00509555, -15, -1, -7, -4, -0.378418, -0.276855, 0.95459
6725, 0.00508016, -2, 3, -12, -5, -0.378418, -0.276855, 0.95459
6726, 0.00494857, -2, 3, -12, -5, -0.378418, -0.276855, 0.95459
6727, 0.00497643, -2, 3, -12, -5, -0.377441, -0.267578, 0.952637
6728, 0.00502041, 5, -7, -3, -1, -0.377441, -0.267578, 0.952637
6729, 0.00498706, 5, -7, -3, -1, -0.377441, -0.267578, 0.952637
6730, 0.00497496, 2, -6, -11, -3, -0.377441, -0.267578, 0.952637
6731, 0.00494491, 2, -6, -11, -3, -0.370117, -0.253418, 0.958496
6732, 0.00497936, -3, 0, -3, 0, -0.370117, -0.253418, 0.958496
6733, 0.00509189, -3, 0, -3, 0, -0.370117, -0.253418, 0.958496
6734, 0.00499989, 1, -1, 11, 1, -0.370117, -0.253418, 0.958496
6735, 0.00500649, 1, -1, 11, 1, -0.381836, -0.266113, 0.94873
6736, 0.00503984, 13, 3, 27, 6, -0.381836, -0.266113, 0.94873
6737, 0.00496947, 10, -4, 5, -1, -0.381836, -0.266113, 0.94873
6738, 0.00489029, 10, -4, 5, -1, -0.381836, -0.266113, 0.94873
6739, 0.00511645, 10, -4, 5, -1, -0.381348, -0.294434, 0.958984
6740, 0.0049669, -17, 1, 0, -3, -0.381348, -0.294434, 0.958984
6741, 0.00491485, -17, 1, 0, -3, -0.381348, -0.294434, 0.958984
6742, 0.00515237, 1, 4, 15, 3, -0.381348, -0.294434, 0.958984
6743, 0.00494527, 1, 4, 15, 3, -0.383301, -0.282227, 0.947754
6744, 0.00489359, -3, -7, 13, 1, -0.383301, -0.282227, 0.947754
6745, 0.00512121, -3, -7, 13, 1, -0.383301, -0.282227, 0.947754
6746, 0.0049724, -6, 1, -13, -3, -0.383301, -0.282227, 0.947754
6747, 0.00487343, -6, 1, -13, -3, -0.381836, -0.268555, 0.941406
6748, 0.00509995, -11, 2, -8, -2, -0.381836, -0.268555, 0.941406
6749, 0.00507503, -11, 2, -8, -2, -0.381836, -0.268555, 0.941406
6750, 0.00495224, -11, 2, -8, -2, -0.381836, -0.268555, 0.941406
6751, 0.00494308, 11, -1, 16, 1, -0.383789, -0.269531, 0.941895
6752, 0.00522091, 36, 3, -28, -4, -0.383789, -0.269531, 0.941895
6753, 0.00490935, 36, 3, -28, -4, -0.383789, -0.269531, 0.941895
6754, 0.00494344, 19, -1, 3, 0, -0.383789, -0.269531, 0.941895
6755, 0.00500392, 19, -1, 3, 0, -0.37793, -0.270996, 0.954102
6756, 0.00499366, 19, -1, 3, 0, -0.37793, -0.270996, 0.954102
6757, 0.00499842, -13, 0, 15, 0, -0.37793, -0.270996, 0.954102
6758, 0.00501968, -5, -1, -5, -5, -0.37793, -0.270996, 0.954102
6759, 0.00491669, -5, -1, -5, -5, -0.382812, -0.271484, 0.943359
6760, 0.0050655, -11, 2, -21, -2, -0.382812, -0.271484, 0.943359
6761, 0.00504241, -11, 2, -21, -2, -0.382812, -0.271484, 0.943359
6762, 0.00494454, -11, 2, -21, -2, -0.382812, -0.271484, 0.943359
6763, 0.00500722, -14, -3, -9, -4, -0.373047, -0.257812, 0.939941
6764, 0.00501785, -1, -4, 8, 0, -0.373047, -0.257812, 0.939941
6765, 0.00504864, -1, -4, 8, 0, -0.373047, -0.257812, 0.939941
6766, 0.00491705, -43, 0, -31, -6, -0.373047, -0.257812, 0.939941
6767, 0.00504277, -43, 0, -31, -6, -0.383301, -0.276367, 0.952148
6768, 0.00490166, -43, 0, -31, -6, -0.383301, -0.276367, 0.952148
6769, 0.00513147, -28, 0, 2, 0, -0.383301, -0.276367, 0.952148
6770, 0.00496323, -6, 3, -7, 1, -0.383301, -0.276367, 0.952148
6771, 0.00490202, -6, 3, -7, 1, -0.380371, -0.271973, 0.935059
6772, 0.00514247, -4, -2, -10, -6, -0.380371, -0.271973, 0.935059
6773, 0.00493758, -4, -2, -10, -6, -0.380371, -0.271973, 0.935059
6774, 0.00499366, -4, -2, -10, -6, -0.380371, -0.271973, 0.935059
6775, 0.00494234, 6, -2, -1, -3, -0.374512, -0.258301, 0.940918
6776, 0.00510142, -1, -1, -3, 2, -0.374512, -0.258301, 0.940918
6777, 0.00501712, -1, -1, -3, 2, -0.374512, -0.258301, 0.940918
6778, 0.00494161, 6, 0, -11, 0, -0.374512, -0.258301, 0.940918
6779, 0.00506183, 6, 0, -11, 0, -0.381348, -0.256836, 0.943359
6780, 0.00494161, 6, 0, -11, 0, -0.381348, -0.256836, 0.943359
6781, 0.00500649, 6, -2, -3, -3, -0.381348, -0.256836, 0.943359
6782, 0.00499622, 5, 1, 25, 4, -0.381348, -0.256836, 0.943359
6783, 0.00489982, 5, 1, 25, 4, -0.379395, -0.282715, 0.950195
6784, 0.00510215, 2, 0, -5, 0, -0.379395, -0.282715, 0.950195
6785, 0.00493941, 2, 0, -5, 0, -0.379395, -0.282715, 0.950195
6786, 0.00508492, 2, 0, -5, 0, -0.379395, -0.282715, 0.950195
6787, 0.0067127, 18, -4, 13, 2, -0.383301, -0.274414, 0.955078
6788, 0.00428185, 13, 0, -13, -3, -0.383301, -0.274414, 0.955078
6789, 0.00500099, 13, 0, -13, -3, -0.383301, -0.274414, 0.955078
6790, 0.00489433, -1, 0, 18, 0, -0.383301, -0.274414, 0.955078
6791, 0.00501345, -1, 0, 18, 0, -0.379883, -0.273438, 0.955566
6792, 0.00512121, -1, 0, 18, 0, -0.379883, -0.273438, 0.955566
6793, 0.00484374, -18, -1, 7, 2, -0.379883, -0.273438, 0.955566
6794, 0.00513551, 4, -4, 15, 1, -0.376953, -0.257324, 0.952637
6795, 0.00503984, 4, -4, 15, 1, -0.376953, -0.257324, 0.952637
6796, 0.00490679, 5, 1, 11, 1, -0.376953, -0.257324, 0.952637
6797, 0.0050468, 5, 1, 11, 1, -0.376953, -0.257324, 0.952637
6798, 0.00500539, 5, 1, 11, 1, -0.376953, -0.257324, 0.952637
6799, 0.00498413, 8, 0, 6, -1, -0.374023, -0.26709, 0.951172
6800, 0.00501455, 17, 1, -13, -2, -0.374023, -0.26709, 0.951172
6801, 0.00490972, 17, 1, -13, -2, -0.374023, -0.26709, 0.951172
6802, 0.00504387, -24, -2, -14, 1, -0.374023, -0.26709, 0.951172
6803, 0.00502481, -24, -2, -14, 1, -0.376465, -0.277832, 0.962402
6804, 0.00502518, -24, -2, -14, 1, -0.376465, -0.277832, 0.962402
6805, 0.00487563, -10, -4, 8, 0, -0.376465, -0.277832, 0.962402
6806, 0.00513001, 7, -1, -57, -5, -0.374512, -0.273926, 0.958984
6807, 0.00497203, 7, -1, -57, -5, -0.374512, -0.273926, 0.958984
6808, 0.00494711, -9, 0, 5, -3, -0.374512, -0.273926, 0.958984
6809, 0.00510215, -9, 0, 5, -3, -0.374512, -0.273926, 0.958984
6810, 0.00500575, -9, 0, 5, -3, -0.374512, -0.273926, 0.958984
6811, 0.00486684, -5, 1, 0, -1, -0.368164, -0.262695, 0.953613
6812, 0.00510472, -8, -2, -9, 0, -0.368164, -0.262695, 0.953613
6813, 0.00499219, -8, -2, -9, 0, -0.368164, -0.262695, 0.953613
6814, 0.00489689, 3, 2, 13, 0, -0.368164, -0.262695, 0.953613
6815, 0.00513001, 3, 2, 13, 0, -0.370117, -0.268555, 0.961426
6816, 0.0049603, 3, 2, 13, 0, -0.370117, -0.268555, 0.961426
6817, 0.00489726, -10, 2, 12, 2, -0.370117, -0.268555, 0.961426
6818, 0.00505853, -10, 2, 12, 2, -0.370117, -0.268555, 0.961426
6819, 0.00504461, -6, -4, 5, 2, -0.370117, -0.268555, 0.961426
6820, 0.0050589, -2, -5, -27, -6, -0.371582, -0.26123, 0.958008
6821, 0.00493721, -2, -5, -27, -6, -0.371582, -0.26123, 0.958008
6822, 0.00501895, -2, -5, -27, -6, -0.371582, -0.26123, 0.958008
6823, 0.00497973, -4, 0, -16, -2, -0.377441, -0.281738, 0.958984
6824, 0.00493098, -2, -2, 2, 1, -0.377441, -0.281738, 0.958984
6825, 0.00509812, -2, -2, 2, 1, -0.377441, -0.281738, 0.958984
6826, 0.00490056, 3, -1, -3, -3, -0.377441, -0.281738, 0.958984
6827, 0.00509042, 3, -1, -3, -3, -0.373535, -0.268066, 0.954102
6828, 0.00503104, 3, -1, -3, -3, -0.373535, -0.268066, 0.954102
6829, 0.00483421, 3, -6, 4, 0, -0.373535, -0.268066, 0.954102
6830, 0.00513661, 5, -1, 1, -4, -0.370605, -0.256836, 0.956543
6831, 0.00501492, 5, -1, 1, -4, -0.370605, -0.256836, 0.956543
6832, 0.00488883, 2, -4, -13, -8, -0.370605, -0.256836, 0.956543
6833, 0.00507503, 2, -4, -13, -8, -0.370605, -0.256836, 0.956543
6834, 0.00493941, 2, -4, -13, -8, -0.370605, -0.256836, 0.956543
6835, 0.00502335, -2, -3, 14, 0, -0.372559, -0.266602, 0.964355
6836, 0.00508822, -8, 4, -26, -3, -0.372559, -0.266602, 0.964355
6837, 0.00497057, -8, 4, -26, -3, -0.372559, -0.266602, 0.964355
6838, 0.00492621, -4, -1, -16, 0, -0.372559, -0.266602, 0.964355
6839, 0.0050545, -4, -1, -16, 0, -0.371094, -0.27002, 0.958008
6840, 0.00502225, -4, -1, -16, 0, -0.371094, -0.27002, 0.958008
6841, 0.00501748, 7, -4, 11, 1, -0.371094, -0.27002, 0.958008
6842, 0.00501712, -3, 3, -23, -4, -0.368652, -0.268555, 0.958008
6843, 0.00499586, -3, 3, -23, -4, -0.368652, -0.268555, 0.958008
6844, 0.00489836, -4, 0, 14, 2, -0.368652, -0.268555, 0.958008
6845, 0.00504351, -4, 0, 14, 2, -0.368652, -0.268555, 0.958008
6846, 0.00502848, -4, 0, 14, 2, -0.368652, -0.268555, 0.958008
6847, 0.00493135, 1, -4, 4, -1, -0.371094, -0.266602, 0.959961
6848, 0.0050523, -3, -4, -7, -3, -0.371094, -0.266602, 0.959961
6849, 0.00499806, -3, -4, -7, -3, -0.371094, -0.266602, 0.959961
6850, 0.00491412, 5, -1, 19, 2, -0.371094, -0.266602, 0.959961
6851, 0.00514614, 5, -1, 19, 2, -0.364258, -0.262695, 0.958984
6852, 0.00499916, 5, -1, 19, 2, -0.364258, -0.262695, 0.958984
6853, 0.00483458, 6, 1, 16, 2, -0.364258, -0.262695, 0.958984
6854, 0.00509409, -15, 3, 16, 2, -0.370605, -0.265625, 0.954102
6855, 0.00497826, -15, 3, 16, 2, -0.370605, -0.265625, 0.954102
6856, 0.00495004, -1, 1, -4, 4, -0.370605, -0.265625, 0.954102
6857, 0.00507503, -1, 1, -4, 4, -0.370605, -0.265625, 0.954102
6858, 0.00499072, -1, 1, -4, 4, -0.370605, -0.265625, 0.954102
6859, 0.00506183, -8, 3, 0, -2, -0.364746, -0.26709, 0.956543
6860, 0.00501712, 4, 0, -4, -3, -0.364746, -0.26709, 0.956543
6861, 0.00495627, 4, 0, -4, -3, -0.364746, -0.26709, 0.956543
6862, 0.00489689, 3, -5, -7, -2, -0.364746, -0.26709, 0.956543
6863, 0.00506, 3, -5, -7, -2, -0.367188, -0.262695, 0.95752
6864, 0.00503984, 3, -5, -7, -2, -0.367188, -0.262695, 0.95752
6865, 0.0048859, 7, -2, 14, 4, -0.367188, -0.262695, 0.95752
6866, 0.00509189, 8, 0, -3, 0, -0.370117, -0.263672, 0.967285
6867, 0.00502005, 8, 0, -3, 0, -0.370117, -0.263672, 0.967285
6868, 0.00493355, -7, 2, -3, -2, -0.370117, -0.263672, 0.967285
6869, 0.00508272, -7, 2, -3, -2, -0.370117, -0.263672, 0.967285
6870, 0.00502591, -7, 2, -3, -2, -0.370117, -0.263672, 0.967285
6871, 0.00495077, -7, 1, -36, -4, -0.374512, -0.269043, 0.960449
6872, 0.00499036, -25, 2, 18, 4, -0.374512, -0.269043, 0.960449
6873, 0.00491925, -25, 2, 18, 4, -0.374512, -0.269043, 0.960449
6874, 0.00497863, -2, -1, -1, -3, -0.374512, -0.269043, 0.960449
6875, 0.00517876, -2, -1, -1, -3, -0.373047, -0.262695, 0.962891
6876, 0.00496104, -2, -1, -1, -3, -0.373047, -0.262695, 0.962891
6877, 0.00501052, -2, -2, 3, -1, -0.373047, -0.262695, 0.962891
6878, 0.00497276, -5, -2, -18, -3, -0.368652, -0.259766, 0.963867
6879, 0.0049636, -5, -2, -18, -3, -0.368652, -0.259766, 0.963867
6880, 0.00492182, 42, -2, -9, -1, -0.368652, -0.259766, 0.963867
6881, 0.00511791, 42, -2, -9, -1, -0.368652, -0.259766, 0.963867
6882, 0.00494601, 42, -2, -9, -1, -0.368652, -0.259766, 0.963867
6883, 0.00504167, 1, -2, -8, -8, -0.363281, -0.250977, 0.949707
6884, 0.00492108, -14, 3, -8, -2, -0.363281, -0.250977, 0.949707
6885, 0.00510582, -14, 3, -8, -2, -0.363281, -0.250977, 0.949707
6886, 0.00489836, -5, -1, -37, -6, -0.363281, -0.250977, 0.949707
6887, 0.00507649, -5, -1, -37, -6, -0.366699, -0.256836, 0.947754
6888, 0.00502298, -5, -1, -37, -6, -0.366699, -0.256836, 0.947754
6889, 0.00485474, -14, 0, -1, -4, -0.366699, -0.256836, 0.947754
6890, 0.00512524, 3, 1, 34, 6, -0.367188, -0.26709, 0.962402
6891, 0.00491669, 3, 1, 34, 6, -0.367188, -0.26709, 0.962402
6892, 0.00500978, -5, -3, -1, -1, -0.367188, -0.26709, 0.962402
6893, 0.00508089, -5, -3, -1, -1, -0.367188, -0.26709, 0.962402
6894, 0.00502298, -5, -3, -1, -1, -0.367188, -0.26709, 0.962402
6895, 0.00507833, 9, 0, 10, 3, -0.367188, -0.264648, 0.970215
6896, 0.00497276, -4, -2, 4, -3, -0.367188, -0.264648, 0.970215
6897, 0.00497423, -4, -2, 4, -3, -0.367188, -0.264648, 0.970215
6898, 0.00484521, 3, -3, 5, 0, -0.367188, -0.264648, 0.970215
6899, 0.00512048, 3, -3, 5, 0, -0.36377, -0.244629, 0.960938
6900, 0.00499916, 3, -3, 5, 0, -0.36377, -0.244629, 0.960938
6901, 0.00503434, 8, -3, 23, 2, -0.36377, -0.244629, 0.960938
6902, 0.00496323, 4, -5, 22, 1, -0.36377, -0.240234, 0.958008
6903, 0.00501895, 4, -5, 22, 1, -0.36377, -0.240234, 0.958008
6904, 0.00493574, 13, -4, -19, -5, -0.36377, -0.240234, 0.958008
6905, 0.00505927, 13, -4, -19, -5, -0.36377, -0.240234, 0.958008
6906, 0.00498156, 13, -4, -19, -5, -0.36377, -0.240234, 0.958008
6907, 0.00500575, -4, 1, 10, -1, -0.366211, -0.25293, 0.958496
6908, 0.00499182, 5, 0, 3, 1, -0.366211, -0.25293, 0.958496
6909, 0.0050666, 5, 0, 3, 1, -0.366211, -0.25293, 0.958496
6910, 0.00489103, 4, -2, 3, 1, -0.366211, -0.25293, 0.958496
6911, 0.00508896, 4, -2, 3, 1, -0.363281, -0.265137, 0.957031
6912, 0.00495884, 4, -2, 3, 1, -0.363281, -0.265137, 0.957031
6913, 0.00493391, -12, 0, -20, -7, -0.363281, -0.265137, 0.957031
6914, 0.00506513, -6, 2, 13, 4, -0.355957, -0.255859, 0.95752
6915, 0.00499329, -6, 2, 13, 4, -0.355957, -0.255859, 0.95752
6916, 0.004957, -2, 1, -2, -1, -0.355957, -0.255859, 0.95752
6917, 0.00503801, -2, 1, -2, -1, -0.355957, -0.255859, 0.95752
6918, 0.00496617, -2, 1, -2, -1, -0.355957, -0.255859, 0.95752
6919, 0.00508492, -1, 1, 12, 0, -0.366211, -0.252441, 0.957031
6920, 0.00500722, 6, 0, 5, 3, -0.366211, -0.252441, 0.957031
6921, 0.00499256, 6, 0, 5, 3, -0.366211, -0.252441, 0.957031
6922, 0.00492365, 2, -1, 10, 3, -0.366211, -0.252441, 0.957031
6923, 0.00503471, 2, -1, 10, 3, -0.365234, -0.252441, 0.970215
6924, 0.00492878, 2, -1, 10, 3, -0.365234, -0.252441, 0.970215
6925, 0.00510069, -2, 0, -22, -5, -0.365234, -0.252441, 0.970215
6926, 0.00497936, -3, 0, -36, -7, -0.361328, -0.258789, 0.968262
6927, 0.00500135, -3, 0, -36, -7, -0.361328, -0.258789, 0.968262
6928, 0.00493978, 3, 1, 29, 3, -0.361328, -0.258789, 0.968262
6929, 0.00505817, 3, 1, 29, 3, -0.361328, -0.258789, 0.968262
6930, 0.00503104, 3, 1, 29, 3, -0.361328, -0.258789, 0.968262
6931, 0.00485108, 3, -4, 12, 3, -0.362793, -0.263672, 0.965332
6932, 0.00519012, 15, 1, -7, -2, -0.362793, -0.263672, 0.965332
6933, 0.00491155, 15, 1, -7, -2, -0.362793, -0.263672, 0.965332
6934, 0.00494527, -3, 4, -6, -5, -0.362793, -0.263672, 0.965332
6935, 0.00513221, -3, 4, -6, -5, -0.364746, -0.257812, 0.957031
6936, 0.00497386, -3, 4, -6, -5, -0.364746, -0.257812, 0.957031
6937, 0.00491815, -13, 1, 2, 3, -0.364746, -0.257812, 0.957031
6938, 0.00510728, 3, 3, -11, -2, -0.364746, -0.257812, 0.957031
6939, 0.00508896, 3, 3, -11, -2, -0.364746, -0.257812, 0.957031
6940, 0.0051542, 3, 3, -11, -2, -0.36377, -0.259277, 0.967773
6941, 0.00481222, -6, -1, -22, -7, -0.36377, -0.259277, 0.967773
6942, 0.00494967, -6, -1, -22, -7, -0.36377, -0.259277, 0.967773
6943, 0.00493574, -2, -2, 12, 2, -0.371582, -0.260254, 0.973145
6944, 0.00501528, -3, 1, -5, 2, -0.371582, -0.260254, 0.973145
6945, 0.00496433, -3, 1, -5, 2, -0.371582, -0.260254, 0.973145
6946, 0.00504974, -3, 1, -5, 2, -0.371582, -0.260254, 0.973145
6947, 0.00493648, 1, -4, 1, -1, -0.375488, -0.279297, 0.961914
6948, 0.00499842, 1, -4, 1, -1, -0.375488, -0.279297, 0.961914
6949, 0.00496287, 1, -6, -1, -3, -0.375488, -0.279297, 0.961914
6950, 0.00502921, 2, 2, 5, 3, -0.375488, -0.279297, 0.961914
6951, 0.00499439, 2, 2, 5, 3, -0.375488, -0.279297, 0.961914
6952, 0.00502115, 2, 2, 5, 3, -0.374023, -0.266602, 0.961426
6953, 0.00503104, 3, -2, 11, 3, -0.374023, -0.266602, 0.961426
6954, 0.00500319, 3, -2, 11, 3, -0.374023, -0.266602, 0.961426
6955, 0.00495957, 2, -4, 7, 2, -0.367676, -0.242188, 0.952148
6956, 0.00503837, -3, 4, -12, -3, -0.367676, -0.242188, 0.952148
6957, 0.00500209, -3, 4, -12, -3, -0.367676, -0.242188, 0.952148
6958, 0.00494711, -3, 4, -12, -3, -0.367676, -0.242188, 0.952148
6959, 0.00513477, 5, 0, -1, -3, -0.360352, -0.242676, 0.949707
6960, 0.00489689, 5, 0, -1, -3, -0.360352, -0.242676, 0.949707
6961, 0.00490276, 2, -1, 7, 1, -0.360352, -0.242676, 0.949707
6962, 0.00512744, -6, -1, -20, -7, -0.360352, -0.242676, 0.949707
6963, 0.0049768, -6, -1, -20, -7, -0.360352, -0.242676, 0.949707
6964, 0.0049757, -6, -1, -20, -7, -0.355957, -0.246582, 0.962891
6965, 0.00502884, -6, 2, 20, 2, -0.355957, -0.246582, 0.962891
6966, 0.00499476, -6, 2, 20, 2, -0.355957, -0.246582, 0.962891
6967, 0.00497606, 0, 1, 1, -1, -0.360352, -0.243164, 0.960449
6968, 0.00498156, -4, 0, -5, 0, -0.360352, -0.243164, 0.960449
6969, 0.00518316, -4, 0, -5, 0, -0.360352, -0.243164, 0.960449
