Frame, Time_def, Emg1, Emg2, Emg3, Emg4, AccX, AccY, AccZ
7842, 0.00587114, 0, -8, 4, 5, -0.353027, 0.0673828, 0.995117
7843, 0.00544999, -2, -2, 0, -1, -0.358887, 0.0732422, 0.996582
7844, 0.00463482, -2, -2, 0, -1, -0.358887, 0.0732422, 0.996582
7845, 0.00497936, 1, -4, 0, 0, -0.358887, 0.0732422, 0.996582
7846, 0.00507429, 1, -4, 0, 0, -0.358887, 0.0732422, 0.996582
7847, 0.00490825, 0, -5, -1, 1, -0.348633, 0.0708008, 0.990234
7848, 0.00502188, 0, -5, -1, 1, -0.348633, 0.0708008, 0.990234
7849, 0.00492585, -1, -5, -1, -2, -0.348633, 0.0708008, 0.990234
7850, 0.00517399, -1, -5, -1, -2, -0.348633, 0.0708008, 0.990234
7851, 0.00492255, -1, -11, 0, -3, -0.352051, 0.0698242, 0.996582
7852, 0.00495774, -1, -11, 0, -3, -0.352051, 0.0698242, 0.996582
7853, 0.00493574, -1, -1, -5, -2, -0.352051, 0.0698242, 0.996582
7854, 0.00513221, 0, -9, 0, 0, -0.35498, 0.0722656, 1.00293
7855, 0.00491998, 0, -9, 0, 0, -0.35498, 0.0722656, 1.00293
7856, 0.00510288, 0, -9, 0, 0, -0.35498, 0.0722656, 1.00293
7857, 0.00498413, 0, 1, 1, 1, -0.35498, 0.0722656, 1.00293
7858, 0.0049614, 0, 1, 1, 1, -0.35498, 0.0722656, 1.00293
7859, 0.00499622, -2, -8, 0, -1, -0.360352, 0.0717773, 1.00146
7860, 0.00497826, 0, -5, 0, 1, -0.360352, 0.0717773, 1.00146
7861, 0.00502555, 0, -5, 0, 1, -0.360352, 0.0717773, 1.00146
7862, 0.0049702, 0, -5, 0, 1, -0.360352, 0.0717773, 1.00146
7863, 0.00500539, 0, -11, 0, -1, -0.359375, 0.0673828, 1.00391
7864, 0.00499916, 0, -11, 0, -1, -0.359375, 0.0673828, 1.00391
7865, 0.00499879, -1, -7, -1, -2, -0.359375, 0.0673828, 1.00391
7866, 0.00499512, 0, -3, 0, 0, -0.362305, 0.0654297, 1.00391
7867, 0.00507283, 0, -3, 0, 0, -0.362305, 0.0654297, 1.00391
7868, 0.00500429, 0, -3, 0, 0, -0.362305, 0.0654297, 1.00391
7869, 0.00498119, -1, -7, -2, -4, -0.362305, 0.0654297, 1.00391
7870, 0.00502041, -1, -7, -2, -4, -0.362305, 0.0654297, 1.00391
7871, 0.00493574, 0, -5, -2, 0, -0.354004, 0.0600586, 1.00537
7872, 0.00505853, 0, 4, 0, 0, -0.354004, 0.0600586, 1.00537
7873, 0.004887, 0, 4, 0, 0, -0.354004, 0.0600586, 1.00537
7874, 0.00510215, 0, 4, 0, 0, -0.354004, 0.0600586, 1.00537
7875, 0.00499219, -2, -3, -3, -5, -0.35791, 0.0678711, 1.00977
7876, 0.00497203, -2, -3, -3, -5, -0.35791, 0.0678711, 1.00977
7877, 0.00499622, -3, 1, -1, -2, -0.35791, 0.0678711, 1.00977
7878, 0.00498743, 0, 9, -3, 0, -0.355957, 0.0644531, 1.00391
7879, 0.00497423, 0, 9, -3, 0, -0.355957, 0.0644531, 1.00391
7880, 0.00503911, 0, 9, -3, 0, -0.355957, 0.0644531, 1.00391
7881, 0.00503544, -1, -3, -1, -1, -0.355957, 0.0644531, 1.00391
7882, 0.00498779, -1, -3, -1, -1, -0.355957, 0.0644531, 1.00391
7883, 0.00507539, 0, 4, 0, 1, -0.356445, 0.0634766, 0.993164
7884, 0.00492145, 0, 4, -3, -4, -0.356445, 0.0634766, 0.993164
7885, 0.00498596, 0, 4, -3, -4, -0.356445, 0.0634766, 0.993164
7886, 0.00498449, 0, 4, -3, -4, -0.356445, 0.0634766, 0.993164
7887, 0.00498449, 0, -3, 0, -2, -0.358398, 0.0678711, 0.99707
7888, 0.00502921, 0, -3, 0, -2, -0.358398, 0.0678711, 0.99707
7889, 0.00490239, 0, 0, -1, -1, -0.358398, 0.0678711, 0.99707
7890, 0.00517399, 0, 0, -1, -1, -0.35791, 0.0649414, 1.00293
7891, 0.00492878, 0, 0, -1, -1, -0.35791, 0.0649414, 1.00293
7892, 0.00499622, -2, -1, -2, -1, -0.35791, 0.0649414, 1.00293
7893, 0.00502738, 0, -3, -3, -4, -0.35791, 0.0649414, 1.00293
7894, 0.00499292, 0, -3, -3, -4, -0.35791, 0.0649414, 1.00293
7895, 0.00495261, 1, 1, 1, 1, -0.359863, 0.0683594, 0.998535
7896, 0.0050589, 1, 1, 1, 1, -0.359863, 0.0683594, 0.998535
7897, 0.00495004, 1, 1, 1, 1, -0.359863, 0.0683594, 0.998535
7898, 0.00500025, 0, -1, 0, 2, -0.359863, 0.0683594, 0.998535
7899, 0.00497167, 0, -1, -3, -4, -0.35498, 0.0664062, 0.991699
7900, 0.00508419, 0, -1, -3, -4, -0.35498, 0.0664062, 0.991699
7901, 0.00498156, -1, -9, 0, 0, -0.35498, 0.0664062, 0.991699
7902, 0.00499622, -1, -9, 0, 0, -0.36084, 0.0698242, 1.00342
7903, 0.00501015, -1, -9, 0, 0, -0.36084, 0.0698242, 1.00342
7904, 0.0049669, -1, 7, 2, -3, -0.36084, 0.0698242, 1.00342
7905, 0.00500245, -1, -6, -1, 0, -0.36084, 0.0698242, 1.00342
7906, 0.00503471, -1, -6, -1, 0, -0.36084, 0.0698242, 1.00342
7907, 0.00503178, 0, -1, -4, 0, -0.36377, 0.0727539, 1.00537
7908, 0.00499512, 0, -1, -4, 0, -0.36377, 0.0727539, 1.00537
7909, 0.00494381, 0, -1, -4, 0, -0.36377, 0.0727539, 1.00537
7910, 0.00500649, -1, -1, -1, -2, -0.36377, 0.0727539, 1.00537
7911, 0.00498999, -4, -4, -3, 0, -0.364746, 0.065918, 0.998047
7912, 0.00499732, -4, -4, -3, 0, -0.364746, 0.065918, 0.998047
7913, 0.00498706, -1, 3, 0, -3, -0.364746, 0.065918, 0.998047
7914, 0.00502921, -1, 3, 0, -3, -0.359863, 0.0644531, 1.00049
7915, 0.00498266, -1, 3, 0, -3, -0.359863, 0.0644531, 1.00049
7916, 0.00497386, -1, 8, 0, 1, -0.359863, 0.0644531, 1.00049
7917, 0.00508382, 1, 1, -1, 2, -0.359863, 0.0644531, 1.00049
7918, 0.00496837, 1, 1, -1, 2, -0.359863, 0.0644531, 1.00049
7919, 0.00496653, -2, 9, 0, -2, -0.355957, 0.0615234, 1.00439
7920, 0.00502774, -2, 9, 0, -2, -0.355957, 0.0615234, 1.00439
7921, 0.0049735, -2, 9, 0, -2, -0.355957, 0.0615234, 1.00439
7922, 0.00502774, 1, -2, 2, 3, -0.355957, 0.0615234, 1.00439
7923, 0.00504644, 0, 11, 0, -1, -0.358887, 0.065918, 0.999512
7924, 0.00492072, 0, 11, 0, -1, -0.358887, 0.065918, 0.999512
7925, 0.00503581, -2, 1, -2, -4, -0.358887, 0.065918, 0.999512
7926, 0.00502445, -2, 1, -2, -4, -0.356934, 0.0673828, 0.994629
7927, 0.00495627, -2, 1, -2, -4, -0.356934, 0.0673828, 0.994629
7928, 0.00502225, 0, 6, -1, -1, -0.356934, 0.0673828, 0.994629
7929, 0.0048694, -1, -1, -3, -3, -0.356934, 0.0673828, 0.994629
7930, 0.00513697, -1, -1, -3, -3, -0.356934, 0.0673828, 0.994629
7931, 0.00495774, 0, 4, 3, 2, -0.351562, 0.0620117, 0.993652
7932, 0.00503361, 0, 4, 3, 2, -0.351562, 0.0620117, 0.993652
7933, 0.0049658, 0, 4, 3, 2, -0.351562, 0.0620117, 0.993652
7934, 0.00509225, -1, -1, 0, 1, -0.351562, 0.0620117, 0.993652
7935, 0.00592649, 0, 6, 1, 2, -0.354492, 0.0649414, 0.997559
7936, 0.00501528, 0, 0, 0, -2, -0.354492, 0.0649414, 0.997559
7937, 0.00496873, 0, 0, 0, -2, -0.354492, 0.0649414, 0.997559
7938, 0.00498413, 0, 0, 0, -2, -0.355957, 0.0664062, 0.998535
7939, 0.005233, -1, 0, -2, -3, -0.355957, 0.0664062, 0.998535
7940, 0.00469493, -2, -1, -1, 0, -0.355957, 0.0664062, 0.998535
7941, 0.00509152, 0, -6, -1, 1, -0.355957, 0.0664062, 0.998535
7942, 0.00500355, 0, -6, -1, 1, -0.355957, 0.0664062, 0.998535
7943, 0.00500062, -1, -6, 1, -1, -0.353027, 0.0678711, 0.995605
7944, 0.00499439, -1, -6, 1, -1, -0.353027, 0.0678711, 0.995605
7945, 0.004968, -1, -1, -2, -5, -0.353027, 0.0678711, 0.995605
7946, 0.00504387, -1, -1, -2, -5, -0.353027, 0.0678711, 0.995605
7947, 0.00497093, -2, 1, -3, -1, -0.342773, 0.0644531, 0.995117
7948, 0.00498303, -1, -4, -1, -1, -0.342773, 0.0644531, 0.995117
7949, 0.00496507, -1, -4, -1, -1, -0.342773, 0.0644531, 0.995117
7950, 0.00507393, -1, -4, -1, -1, -0.353027, 0.065918, 0.995605
7951, 0.00501602, -2, 4, -4, -2, -0.353027, 0.065918, 0.995605
7952, 0.00498303, -2, 4, -4, -2, -0.353027, 0.065918, 0.995605
7953, 0.00510875, -1, 2, 2, 0, -0.353027, 0.065918, 0.995605
7954, 0.00491302, -1, 2, 2, 0, -0.353027, 0.065918, 0.995605
7955, 0.00498156, 1, 15, -4, -1, -0.347656, 0.0629883, 1.00439
7956, 0.00496104, 1, 15, -4, -1, -0.347656, 0.0629883, 1.00439
7957, 0.00510069, -2, 5, -1, -5, -0.347656, 0.0629883, 1.00439
7958, 0.00480599, 0, 2, 2, 3, -0.347656, 0.0629883, 1.00439
7959, 0.00512231, 1, 4, 6, 4, -0.348633, 0.0683594, 1.01074
7960, 0.00504864, -2, 4, -1, 2, -0.348633, 0.0683594, 1.01074
7961, 0.0049779, -2, 4, -1, 2, -0.348633, 0.0683594, 1.01074
7962, 0.00496727, -2, 4, -1, 2, -0.348633, 0.0683594, 1.01074
7963, 0.00502261, -2, 4, -1, 2, -0.348633, 0.0683594, 1.01074
7964, 0.00496323, -10, 3, -1, -5, -0.328613, 0.0727539, 1.01758
7965, 0.00502298, -5, -4, -1, 3, -0.328613, 0.0727539, 1.01758
7966, 0.00497386, -5, -4, -1, 3, -0.328613, 0.0727539, 1.01758
7967, 0.00502994, 0, 12, -2, -1, -0.295898, 0.0942383, 1.03076
7968, 0.00500355, 0, 12, -2, -1, -0.295898, 0.0942383, 1.03076
7969, 0.00501162, -1, 15, -1, -3, -0.295898, 0.0942383, 1.03076
7970, 0.00488406, -1, 15, -1, -3, -0.295898, 0.0942383, 1.03076
7971, 0.00508456, 1, 36, -1, 0, -0.254883, 0.11377, 1.05566
7972, 0.00492108, 6, 24, 4, -3, -0.254883, 0.11377, 1.05566
7973, 0.00616107, 6, 24, 4, -3, -0.254883, 0.11377, 1.05566
7974, 0.00491449, 6, 24, 4, -3, -0.254883, 0.11377, 1.05566
7975, 0.00502188, 6, 24, 4, -3, -0.243652, 0.15625, 1.11035
7976, 0.00498596, -1, 31, 6, 1, -0.243652, 0.15625, 1.11035
7977, 0.00500905, 0, 25, -10, 1, -0.243652, 0.15625, 1.11035
7978, 0.0049801, 0, 25, -10, 1, -0.217285, 0.20166, 1.1875
7979, 0.00491559, 5, -63, 7, 0, -0.217285, 0.20166, 1.1875
7980, 0.00508896, 5, -63, 7, 0, -0.217285, 0.20166, 1.1875
7981, 0.00500282, -2, -84, -28, -5, -0.217285, 0.20166, 1.1875
7982, 0.00495407, -2, -84, -28, -5, -0.217285, 0.20166, 1.1875
7983, 0.00510472, -4, -68, -5, -3, -0.183594, 0.26709, 1.29834
7984, 0.0049669, -2, -46, 1, 2, -0.183594, 0.26709, 1.29834
7985, 0.00599796, -2, -46, 1, 2, -0.183594, 0.26709, 1.29834
7986, 0.00499732, -2, -46, 1, 2, -0.183594, 0.26709, 1.29834
7987, 0.00503471, 0, 8, 7, 0, -0.146484, 0.310547, 1.32422
7988, 0.0048782, 0, 8, 7, 0, -0.146484, 0.310547, 1.32422
7989, 0.00515676, -8, 15, -3, -3, -0.146484, 0.310547, 1.32422
7990, 0.00483495, -3, -6, -13, -3, -0.15918, 0.305664, 1.32031
7991, 0.00514284, -3, -6, -13, -3, -0.15918, 0.305664, 1.32031
7992, 0.00551084, -3, -6, -13, -3, -0.15918, 0.305664, 1.32031
7993, 0.00449737, 3, 28, 33, 3, -0.15918, 0.305664, 1.32031
7994, 0.00494381, 3, 28, 33, 3, -0.15918, 0.305664, 1.32031
7995, 0.00498816, 2, -10, 4, 0, -0.12207, 0.294922, 1.28564
7996, 0.00500355, 7, 3, 0, 3, -0.12207, 0.294922, 1.28564
7997, 0.00498669, 7, 3, 0, 3, -0.12207, 0.294922, 1.28564
7998, 0.00501125, 7, 3, 0, 3, -0.12207, 0.294922, 1.28564
7999, 0.00505597, 0, -4, 4, -1, -0.0703125, 0.225586, 1.33643
8000, 0.00494014, 0, -4, 4, -1, -0.0703125, 0.225586, 1.33643
8001, 0.00497167, 0, -29, -2, -1, -0.0703125, 0.225586, 1.33643
8002, 0.00504057, 0, -13, -3, 0, -0.0253906, 0.200195, 1.354
8003, 0.00499952, 0, -13, -3, 0, -0.0253906, 0.200195, 1.354
8004, 0.00502225, 0, -13, -3, 0, -0.0253906, 0.200195, 1.354
8005, 0.0048771, 1, 7, 1, 0, -0.0253906, 0.200195, 1.354
8006, 0.00511315, 1, 7, 1, 0, -0.0253906, 0.200195, 1.354
8007, 0.00496287, 0, 9, -3, -4, -0.0117188, 0.207031, 1.30859
8008, 0.00563399, -1, 10, 1, 4, -0.0117188, 0.207031, 1.30859
8009, 0.00442993, -1, 10, 1, 4, -0.0117188, 0.207031, 1.30859
8010, 0.00493868, -1, 10, 1, 4, -0.0117188, 0.207031, 1.30859
8011, 0.00498523, 0, -23, -17, -1, -0.0478516, 0.192383, 1.25879
8012, 0.00509775, 0, -23, -17, -1, -0.0478516, 0.192383, 1.25879
8013, 0.00488919, 0, 42, -2, -5, -0.0478516, 0.192383, 1.25879
8014, 0.00516996, 3, 74, 1, -1, -0.114746, 0.186523, 1.18115
8015, 0.00489286, 3, 74, 1, -1, -0.114746, 0.186523, 1.18115
8016, 0.00558744, 3, 74, 1, -1, -0.114746, 0.186523, 1.18115
8017, 0.00442883, 3, 36, -3, -2, -0.114746, 0.186523, 1.18115
8018, 0.00598843, 3, 36, -3, -2, -0.114746, 0.186523, 1.18115
8019, 0.00490752, 3, -61, -1, 2, -0.19873, 0.212891, 1.13477
8020, 0.00509299, 0, -88, -1, -3, -0.19873, 0.212891, 1.13477
8021, 0.00495151, 0, -88, -1, -3, -0.19873, 0.212891, 1.13477
8022, 0.00508712, 0, -88, -1, -3, -0.19873, 0.212891, 1.13477
8023, 0.00492988, 3, -40, -2, -1, -0.330078, 0.266602, 1.12305
8024, 0.00501418, -2, -7, 0, 0, -0.330078, 0.266602, 1.12305
8025, 0.00499329, -2, -7, 0, 0, -0.330078, 0.266602, 1.12305
8026, 0.00492878, 3, 17, 0, -4, -0.342773, 0.317871, 1.12646
8027, 0.00505743, 3, 17, 0, -4, -0.342773, 0.317871, 1.12646
8028, 0.00490679, 3, 17, 0, -4, -0.342773, 0.317871, 1.12646
8029, 0.00508896, 3, 17, 0, -4, -0.342773, 0.317871, 1.12646
8030, 0.00494527, 3, 17, 0, -4, -0.342773, 0.317871, 1.12646
8031, 0.00505523, 14, 59, 9, 0, -0.381836, 0.318359, 1.10254
8032, 0.00522604, 2, -2, -8, -8, -0.381836, 0.318359, 1.10254
8033, 0.00480892, 2, -2, -8, -8, -0.381836, 0.318359, 1.10254
8034, 0.00491852, 2, -2, -8, -8, -0.381836, 0.318359, 1.10254
8035, 0.0050556, -2, -16, -2, 1, -0.465332, 0.331055, 1.07764
8036, 0.00504057, -25, -29, -21, -11, -0.465332, 0.331055, 1.07764
8037, 0.0049735, -25, -29, -21, -11, -0.465332, 0.331055, 1.07764
8038, 0.00491998, -16, 14, -12, -8, -0.554688, 0.311035, 1.0459
8039, 0.00511205, -16, 14, -12, -8, -0.554688, 0.311035, 1.0459
8040, 0.0049713, -16, 14, -12, -8, -0.554688, 0.311035, 1.0459
8041, 0.0049713, -9, -7, -18, 6, -0.554688, 0.311035, 1.0459
8042, 0.00504937, -9, -7, -18, 6, -0.554688, 0.311035, 1.0459
8043, 0.00485108, -26, 23, -2, -3, -0.614258, 0.317871, 0.98877
8044, 0.00511168, 13, 20, 27, 3, -0.614258, 0.317871, 0.98877
8045, 0.00501455, 13, 20, 27, 3, -0.614258, 0.317871, 0.98877
8046, 0.00490239, 13, 20, 27, 3, -0.614258, 0.317871, 0.98877
8047, 0.00507356, -2, -38, -3, 2, -0.638184, 0.388672, 0.916992
8048, 0.0049658, -14, -56, -18, 5, -0.638184, 0.388672, 0.916992
8049, 0.00507429, -14, -56, -18, 5, -0.638184, 0.388672, 0.916992
8050, 0.00489836, -13, -30, -86, -14, -0.672852, 0.398926, 0.88916
8051, 0.00503288, -13, -30, -86, -14, -0.672852, 0.398926, 0.88916
8052, 0.00529788, -13, -30, -86, -14, -0.672852, 0.398926, 0.88916
8053, 0.00471289, -9, -31, -18, -1, -0.672852, 0.398926, 0.88916
8054, 0.00509299, -9, -31, -18, -1, -0.672852, 0.398926, 0.88916
8055, 0.00492805, -8, 30, 36, 19, -0.697266, 0.36377, 0.890137
8056, 0.0050611, 9, 43, 25, 4, -0.697266, 0.36377, 0.890137
8057, 0.0049735, 9, 43, 25, 4, -0.697266, 0.36377, 0.890137
8058, 0.00502665, 9, 43, 25, 4, -0.697266, 0.36377, 0.890137
8059, 0.00497496, 9, 43, 25, 4, -0.697266, 0.36377, 0.890137
8060, 0.00500539, 9, 43, 25, 4, -0.697266, 0.36377, 0.890137
8061, 0.00498779, 29, 6, 0, 0, -0.762695, 0.359863, 0.910645
8062, 0.00501418, 1, -18, -13, 6, -0.739258, 0.359375, 0.947266
8063, 0.00500502, 1, -18, -13, 6, -0.739258, 0.359375, 0.947266
8064, 0.00498413, 1, -18, -13, 6, -0.739258, 0.359375, 0.947266
8065, 0.0049614, 4, 51, 55, 2, -0.739258, 0.359375, 0.947266
8066, 0.00608923, -5, 37, 12, -16, -0.640137, 0.415527, 1.02588
8067, 0.00499146, -5, 37, 12, -16, -0.640137, 0.415527, 1.02588
8068, 0.00503251, -6, 51, -8, 2, -0.640137, 0.415527, 1.02588
8069, 0.00499549, -6, 51, -8, 2, -0.640137, 0.415527, 1.02588
8070, 0.0049768, -6, 51, -8, 2, -0.640137, 0.415527, 1.02588
8071, 0.00489249, -52, 79, -17, -6, -0.46582, 0.344238, 1.05469
8072, 0.00499366, -32, 95, 33, 6, -0.46582, 0.344238, 1.05469
8073, 0.00513111, -32, 95, 33, 6, -0.46582, 0.344238, 1.05469
8074, 0.00494637, 82, 42, 9, 0, -0.133789, 0.398438, 1.06738
8075, 0.00502701, 82, 42, 9, 0, -0.133789, 0.398438, 1.06738
8076, 0.00496214, 82, 42, 9, 0, -0.133789, 0.398438, 1.06738
8077, 0.00501015, -9, -80, 91, 21, -0.133789, 0.398438, 1.06738
8078, 0.00500099, -34, -120, -18, -8, 0.255859, 0.43457, 0.871094
8079, 0.00499329, -34, -120, -18, -8, 0.255859, 0.43457, 0.871094
8080, 0.00499586, -34, -120, -18, -8, 0.255859, 0.43457, 0.871094
8081, 0.00501895, 34, -107, -16, -6, 0.255859, 0.43457, 0.871094
8082, 0.00492878, 34, -107, -16, -6, 0.255859, 0.43457, 0.871094
8083, 0.00509189, -30, 109, 27, 9, 0.645508, 1.07715, 0.530762
8084, 0.00497093, 24, -122, -35, -13, 0.645508, 1.07715, 0.530762
8085, 0.00504277, 24, -122, -35, -13, 0.645508, 1.07715, 0.530762
8086, 0.00497093, 24, -122, -35, -13, 0.90625, 2.66602, -2.10449
8087, 0.00499366, -55, 94, -39, 1, 0.90625, 2.66602, -2.10449
8088, 0.00497167, -55, 94, -39, 1, 0.90625, 2.66602, -2.10449
8089, 0.00502811, -46, -102, -26, -9, 0.90625, 2.66602, -2.10449
8090, 0.00499842, -11, -99, 20, 3, -0.247559, -0.25293, 0.750977
8091, 0.00503141, -11, -99, 20, 3, -0.247559, -0.25293, 0.750977
8092, 0.00488846, -11, -99, 20, 3, -0.247559, -0.25293, 0.750977
8093, 0.00513367, 13, -127, -16, -3, -0.247559, -0.25293, 0.750977
8094, 0.0049757, 13, -127, -16, -3, -0.247559, -0.25293, 0.750977
8095, 0.0049746, 44, 25, -29, -3, -0.169922, -2.09912, 0.728027
8096, 0.00499806, -46, -47, -12, -12, -0.169922, -2.09912, 0.728027
8097, 0.00500978, -46, -47, -12, -12, -0.169922, -2.09912, 0.728027
8098, 0.00491522, -46, -47, -12, -12, -0.470703, -2.68848, 1.12012
8099, 0.00522018, -28, 89, -31, -9, -0.470703, -2.68848, 1.12012
8100, 0.00485364, -28, 89, -31, -9, -0.470703, -2.68848, 1.12012
8101, 0.00501785, -92, 122, -33, -12, -0.470703, -2.68848, 1.12012
8102, 0.00488956, 36, -60, 40, 8, -0.370117, -1.50342, 0.726074
8103, 0.00511718, 36, -60, 40, 8, -0.370117, -1.50342, 0.726074
8104, 0.00500832, 36, -60, 40, 8, -0.370117, -1.50342, 0.726074
8105, 0.00494051, -1, -96, 3, 4, -0.370117, -1.50342, 0.726074
8106, 0.0050666, -1, -96, 3, 4, -0.370117, -1.50342, 0.726074
8107, 0.00497423, 14, 110, -5, -1, -0.285156, 0.0458984, 0.57373
8108, 0.00490239, 41, 127, 3, 10, -0.285156, 0.0458984, 0.57373
8109, 0.00521174, 41, 127, 3, 10, -0.285156, 0.0458984, 0.57373
8110, 0.00520661, 41, 127, 3, 10, -0.315918, 0.528809, 0.622559
8111, 0.00474295, 87, -23, 23, 6, -0.315918, 0.528809, 0.622559
8112, 0.00499256, 87, -23, 23, 6, -0.315918, 0.528809, 0.622559
8113, 0.00498816, 48, 48, 1, 2, -0.315918, 0.528809, 0.622559
8114, 0.00492218, -52, 18, 7, -1, -0.42334, 0.109863, 0.747559
8115, 0.00498449, -52, 18, 7, -1, -0.42334, 0.109863, 0.747559
8116, 0.00507906, -52, 18, 7, -1, -0.42334, 0.109863, 0.747559
8117, 0.00492695, 24, 35, -19, -3, -0.42334, 0.109863, 0.747559
8118, 0.00503618, 24, 35, -19, -3, -0.42334, 0.109863, 0.747559
8119, 0.00500759, 4, 7, 6, -10, -0.414062, -0.240234, 0.822266
8120, 0.00499182, 35, -12, 14, 1, -0.414062, -0.240234, 0.822266
8121, 0.00500209, 35, -12, 14, 1, -0.414062, -0.240234, 0.822266
8122, 0.00511901, 35, -12, 14, 1, -0.370605, -0.291992, 0.85791
8123, 0.00487747, -81, -9, -8, 0, -0.370605, -0.291992, 0.85791
8124, 0.00499109, -81, -9, -8, 0, -0.370605, -0.291992, 0.85791
8125, 0.00500795, -17, 13, -23, -5, -0.370605, -0.291992, 0.85791
8126, 0.00501052, -4, -2, -50, -7, -0.431152, -0.310547, 0.822266
8127, 0.00500905, -4, -2, -50, -7, -0.431152, -0.310547, 0.822266
8128, 0.00490349, -4, -2, -50, -7, -0.431152, -0.310547, 0.822266
8129, 0.00506, 13, -10, 15, 3, -0.431152, -0.310547, 0.822266
8130, 0.00498926, 13, -10, 15, 3, -0.431152, -0.310547, 0.822266
8131, 0.00503837, 46, -9, 23, 1, -0.438477, -0.368652, 0.842285
8132, 0.00521358, 9, -2, -49, -15, -0.438477, -0.368652, 0.842285
8133, 0.00480233, 9, -2, -49, -15, -0.438477, -0.368652, 0.842285
8134, 0.00495077, 9, -2, -49, -15, -0.451172, -0.485352, 0.931641
8135, 0.00503837, -8, 7, 12, 6, -0.451172, -0.485352, 0.931641
8136, 0.00487857, -8, 7, 12, 6, -0.451172, -0.485352, 0.931641
8137, 0.00506733, -30, 1, 9, 3, -0.451172, -0.485352, 0.931641
8138, 0.0049537, 31, 2, 6, 2, -0.461914, -0.505859, 0.943359
8139, 0.00516849, 31, 2, 6, 2, -0.461914, -0.505859, 0.943359
8140, 0.0048782, 31, 2, 6, 2, -0.461914, -0.505859, 0.943359
8141, 0.00502811, -7, 12, 4, 0, -0.461914, -0.505859, 0.943359
8142, 0.00500502, -7, 12, 4, 0, -0.461914, -0.505859, 0.943359
8143, 0.0049724, 8, 2, 6, 0, -0.425781, -0.39502, 0.900879
8144, 0.00502371, -1, -26, -18, -2, -0.425781, -0.39502, 0.900879
8145, 0.00499329, -1, -26, -18, -2, -0.425781, -0.39502, 0.900879
8146, 0.00499366, -1, -26, -18, -2, -0.365723, -0.294922, 0.89502
8147, 0.0050468, -21, -36, -7, -3, -0.365723, -0.294922, 0.89502
8148, 0.00492915, -21, -36, -7, -3, -0.365723, -0.294922, 0.89502
8149, 0.00498449, 6, 2, 8, -1, -0.365723, -0.294922, 0.89502
8150, 0.00507466, 17, 19, 14, 3, -0.402344, -0.331055, 0.895508
8151, 0.00501492, 17, 19, 14, 3, -0.402344, -0.331055, 0.895508
8152, 0.00487637, 17, 19, 14, 3, -0.402344, -0.331055, 0.895508
8153, 0.0051586, -15, 9, 9, -1, -0.402344, -0.331055, 0.895508
8154, 0.00492915, -15, 9, 9, -1, -0.402344, -0.331055, 0.895508
8155, 0.00507429, -19, 11, 0, -3, -0.396484, -0.374023, 0.938477
8156, 0.00496947, 26, -3, 16, -1, -0.396484, -0.374023, 0.938477
8157, 0.00499292, 26, -3, 16, -1, -0.396484, -0.374023, 0.938477
8158, 0.0049581, 26, -3, 16, -1, -0.396484, -0.374023, 0.938477
8159, 0.00511535, 10, -9, 1, -4, -0.384277, -0.330078, 0.923828
8160, 0.00488663, 10, -9, 1, -4, -0.384277, -0.330078, 0.923828
8161, 0.00501235, 28, 1, -30, -4, -0.384277, -0.330078, 0.923828
8162, 0.00496543, 5, 3, 2, 1, -0.387207, -0.333008, 0.937988
8163, 0.00503214, 5, 3, 2, 1, -0.387207, -0.333008, 0.937988
8164, 0.00497496, 5, 3, 2, 1, -0.387207, -0.333008, 0.937988
8165, 0.00509702, -7, -2, -10, -4, -0.387207, -0.333008, 0.937988
8166, 0.00494051, -7, -2, -10, -4, -0.387207, -0.333008, 0.937988
8167, 0.00495774, 2, -7, -6, 3, -0.372559, -0.313477, 0.92041
8168, 0.00501345, -21, -4, 33, 6, -0.372559, -0.313477, 0.92041
8169, 0.00508676, -21, -4, 33, 6, -0.372559, -0.313477, 0.92041
8170, 0.00491119, -21, -4, 33, 6, -0.379395, -0.302734, 0.936035
8171, 0.00505157, 0, 3, -7, -2, -0.379395, -0.302734, 0.936035
8172, 0.00489359, 0, 3, -7, -2, -0.379395, -0.302734, 0.936035
8173, 0.00513221, -18, 12, -12, -4, -0.379395, -0.302734, 0.936035
8174, 0.00492182, -31, 2, 0, -3, -0.367188, -0.274902, 0.928711
8175, 0.00498999, -31, 2, 0, -3, -0.367188, -0.274902, 0.928711
8176, 0.00504167, -31, 2, 0, -3, -0.367188, -0.274902, 0.928711
8177, 0.00501528, -9, 4, 7, 0, -0.367188, -0.274902, 0.928711
8178, 0.0049746, -9, 4, 7, 0, -0.367188, -0.274902, 0.928711
8179, 0.00500172, -9, 4, 7, 0, -0.367188, -0.274902, 0.928711
8180, 0.00498853, -9, 4, 7, 0, -0.350586, -0.265137, 0.948242
8181, 0.00501675, 3, -14, -2, 0, -0.350586, -0.265137, 0.948242
8182, 0.00495517, 3, -14, -2, 0, -0.352539, -0.256348, 0.954102
8183, 0.00506806, -10, 1, 31, 5, -0.352539, -0.256348, 0.954102
8184, 0.00489506, -10, 1, 31, 5, -0.352539, -0.256348, 0.954102
8185, 0.00507429, 20, -6, -10, -7, -0.352539, -0.256348, 0.954102
8186, 0.00498816, 19, -3, 4, -4, -0.343262, -0.291016, 0.969727
8187, 0.00507759, 19, -3, 4, -4, -0.343262, -0.291016, 0.969727
8188, 0.00486244, 19, -3, 4, -4, -0.343262, -0.291016, 0.969727
8189, 0.00513587, 39, -5, -11, 0, -0.343262, -0.291016, 0.969727
8190, 0.00494161, 39, -5, -11, 0, -0.343262, -0.291016, 0.969727
8191, 0.00500539, 0, 0, -8, -4, -0.359375, -0.338379, 0.978027
8192, 0.00498413, -13, 9, 20, 5, -0.359375, -0.338379, 0.978027
8193, 0.00501638, -13, 9, 20, 5, -0.359375, -0.338379, 0.978027
8194, 0.00496617, -13, 9, 20, 5, -0.358398, -0.32959, 0.966309
8195, 0.00502848, 1, 0, 17, -1, -0.358398, -0.32959, 0.966309
8196, 0.0049768, 1, 0, 17, -1, -0.358398, -0.32959, 0.966309
8197, 0.00501162, -4, -4, 4, 4, -0.358398, -0.32959, 0.966309
8198, 0.00490569, -9, -13, -3, -4, -0.340332, -0.280762, 0.967773
8199, 0.00514797, -9, -13, -3, -4, -0.340332, -0.280762, 0.967773
8200, 0.00492182, -9, -13, -3, -4, -0.340332, -0.280762, 0.967773
8201, 0.00506183, 46, 1, -13, 4, -0.340332, -0.280762, 0.967773
8202, 0.00498156, 46, 1, -13, 4, -0.340332, -0.280762, 0.967773
8203, 0.00500355, -13, -2, -8, 0, -0.341797, -0.285645, 0.96582
8204, 0.00497423, -15, 5, -4, 0, -0.341797, -0.285645, 0.96582
8205, 0.00501858, -15, 5, -4, 0, -0.341797, -0.285645, 0.96582
8206, 0.00500869, -15, 5, -4, 0, -0.347168, -0.318848, 0.976074
8207, 0.00499769, 17, 0, -34, -8, -0.347168, -0.318848, 0.976074
8208, 0.00498963, 17, 0, -34, -8, -0.347168, -0.318848, 0.976074
8209, 0.00502298, -38, 0, 35, 8, -0.347168, -0.318848, 0.976074
8210, 0.00497167, -3, -4, 17, 1, -0.342285, -0.308594, 0.958984
8211, 0.00503288, -3, -4, 17, 1, -0.342285, -0.308594, 0.958984
8212, 0.00494381, -3, -4, 17, 1, -0.342285, -0.308594, 0.958984
8213, 0.00502518, 31, -5, -21, -3, -0.342285, -0.308594, 0.958984
8214, 0.00499182, 31, -5, -21, -3, -0.342285, -0.308594, 0.958984
8215, 0.00500429, -2, 2, -20, -2, -0.338379, -0.316895, 0.958008
8216, 0.00494418, -8, -7, 9, 1, -0.338379, -0.316895, 0.958008
8217, 0.00510582, -8, -7, 9, 1, -0.338379, -0.316895, 0.958008
8218, 0.00493391, -8, -7, 9, 1, -0.34082, -0.317871, 0.949219
8219, 0.00502298, 48, -3, 2, 2, -0.34082, -0.317871, 0.949219
8220, 0.00498193, 48, -3, 2, 2, -0.34082, -0.317871, 0.949219
8221, 0.00501712, -21, -2, -17, -8, -0.34082, -0.317871, 0.949219
8222, 0.00544156, 21, 0, 30, 5, -0.333496, -0.326172, 0.953125
8223, 0.00461246, 21, 0, 30, 5, -0.333496, -0.326172, 0.953125
8224, 0.00492841, 21, 0, 30, 5, -0.333496, -0.326172, 0.953125
8225, 0.00501638, -9, -5, -16, -7, -0.333496, -0.326172, 0.953125
8226, 0.00501821, -9, -5, -16, -7, -0.333496, -0.326172, 0.953125
8227, 0.00496323, -12, 2, -1, 0, -0.334473, -0.344238, 0.958496
8228, 0.00495957, -6, 7, 12, 3, -0.334473, -0.344238, 0.958496
8229, 0.00498303, -6, 7, 12, 3, -0.334473, -0.344238, 0.958496
8230, 0.00513954, -6, 7, 12, 3, -0.342285, -0.363281, 0.953125
8231, 0.00491852, 8, -5, -1, -2, -0.342285, -0.363281, 0.953125
8232, 0.00495517, 8, -5, -1, -2, -0.342285, -0.363281, 0.953125
8233, 0.0050534, -1, 4, 12, -2, -0.342285, -0.363281, 0.953125
8234, 0.00502225, 14, 1, 1, -1, -0.333008, -0.349609, 0.952148
8235, 0.00499292, 14, 1, 1, -1, -0.333008, -0.349609, 0.952148
8236, 0.00501272, 14, 1, 1, -1, -0.333008, -0.349609, 0.952148
8237, 0.0049713, -11, -12, 6, 1, -0.333008, -0.349609, 0.952148
8238, 0.00494344, -11, -12, 6, 1, -0.333008, -0.349609, 0.952148
8239, 0.00509335, -52, 3, -19, -5, -0.330566, -0.334961, 0.950684
8240, 0.00496177, -3, -3, 24, 2, -0.330566, -0.334961, 0.950684
8241, 0.00498633, -3, -3, 24, 2, -0.330566, -0.334961, 0.950684
8242, 0.00497276, -3, -3, 24, 2, -0.325684, -0.337891, 0.956055
8243, 0.00505267, 11, 5, 13, 2, -0.325684, -0.337891, 0.956055
8244, 0.00493684, 11, 5, 13, 2, -0.325684, -0.337891, 0.956055
8245, 0.0050534, -27, -2, -1, 1, -0.325684, -0.337891, 0.956055
8246, 0.00498083, -19, -1, -1, -1, -0.331543, -0.356445, 0.960449
8247, 0.00500209, -19, -1, -1, -1, -0.331543, -0.356445, 0.960449
8248, 0.00495847, -19, -1, -1, -1, -0.331543, -0.356445, 0.960449
8249, 0.0051487, 0, 4, -25, -8, -0.331543, -0.356445, 0.960449
8250, 0.0048661, 0, 4, -25, -8, -0.331543, -0.356445, 0.960449
8251, 0.00502665, 0, 4, -25, -8, -0.331543, -0.356445, 0.960449
8252, 0.00498523, 0, 4, -25, -8, -0.331543, -0.350098, 0.953613
8253, 0.0109704, -9, 0, -34, -8, -0.331543, -0.350098, 0.953613
8254, 0.00543533, -10, -3, -11, -1, -0.331055, -0.334961, 0.960449
8255, 0.00501638, 28, 5, -1, -2, -0.331055, -0.334961, 0.960449
8256, 0.00546319, 28, 5, -1, -2, -0.331055, -0.334961, 0.960449
8257, 0.00580993, 7, 0, 6, -1, -0.326172, -0.329102, 0.953613
8258, 0.00431704, 7, 0, 6, -1, -0.326172, -0.329102, 0.953613
8259, 0.00590449, 7, 0, 6, -1, -0.326172, -0.329102, 0.953613
8260, 0.00595288, -6, -2, 3, 3, -0.326172, -0.329102, 0.953613
8261, 0.00581579, -5, -6, 19, 0, -0.318848, -0.325195, 0.966797
8262, 0.0043196, -5, -5, -4, -4, -0.318848, -0.325195, 0.966797
8263, 0.00924985, -5, -5, -4, -4, -0.318848, -0.325195, 0.966797
8264, 0.00576338, -5, -5, -4, -4, -0.318848, -0.325195, 0.966797
8265, 0.00500209, 25, 2, 1, -1, -0.319336, -0.331055, 0.962402
8266, 0.00500759, -4, -1, -6, -3, -0.319336, -0.331055, 0.962402
8267, 0.0049658, -4, -1, -6, -3, -0.319336, -0.32959, 0.960938
8268, 0.00497826, -4, -1, -6, -3, -0.319336, -0.32959, 0.960938
8269, 0.0051564, -21, 2, 13, 1, -0.319336, -0.32959, 0.960938
8270, 0.00490496, -4, 0, 5, 1, -0.319336, -0.32959, 0.960938
8271, 0.0049735, -4, 0, 5, 1, -0.319336, -0.32959, 0.960938
8272, 0.00501602, 4, -5, -24, 1, -0.320801, -0.326172, 0.952148
8273, 0.00503947, 4, -5, -24, 1, -0.320801, -0.326172, 0.952148
8274, 0.00494198, 4, -5, -24, 1, -0.320801, -0.326172, 0.952148
8275, 0.00501272, -3, 2, 8, 3, -0.320801, -0.326172, 0.952148
8276, 0.00495187, -3, 2, 8, 3, -0.31543, -0.328125, 0.967285
8277, 0.00502445, 2, 3, -6, -2, -0.31543, -0.328125, 0.967285
8278, 0.00500282, 2, 3, -6, -2, -0.31543, -0.328125, 0.967285
8279, 0.00503214, 45, -2, -12, -2, -0.317383, -0.329102, 0.956543
8280, 0.00562373, 45, -2, -12, -2, -0.317383, -0.329102, 0.956543
8281, 0.00437018, -18, 2, -2, 0, -0.317383, -0.329102, 0.956543
8282, 0.00501235, -6, 0, 19, 3, -0.317383, -0.329102, 0.956543
8283, 0.0049691, -6, 0, 19, 3, -0.317383, -0.329102, 0.956543
8284, 0.00499916, 4, 1, -3, -2, -0.322266, -0.325684, 0.952637
8285, 0.00505157, 4, 1, -3, -2, -0.322266, -0.325684, 0.952637
8286, 0.00501858, 4, 1, -3, -2, -0.322266, -0.325684, 0.952637
8287, 0.00494711, 7, -2, -13, -4, -0.322266, -0.325684, 0.952637
8288, 0.00499036, 7, -2, -13, -4, -0.322266, -0.325684, 0.952637
8289, 0.00501968, -15, -6, 6, 0, -0.317383, -0.314941, 0.956543
8290, 0.00499402, -8, -3, 8, 2, -0.317383, -0.314941, 0.956543
8291, 0.00501821, -8, -3, 8, 2, -0.321777, -0.313477, 0.951172
8292, 0.00497423, -8, -3, 8, 2, -0.321777, -0.313477, 0.951172
8293, 0.00507906, 7, -2, 15, 3, -0.321777, -0.313477, 0.951172
8294, 0.00492402, 7, -2, 15, 3, -0.321777, -0.313477, 0.951172
8295, 0.00500649, 7, -2, 15, 3, -0.321777, -0.313477, 0.951172
8296, 0.00499806, 3, -2, -15, -4, -0.319824, -0.3125, 0.937012
8297, 0.00496617, 3, -2, -15, -4, -0.319824, -0.3125, 0.937012
8298, 0.00504937, 3, -2, -15, -4, -0.319824, -0.3125, 0.937012
8299, 0.00504717, -11, 2, 2, -1, -0.319824, -0.3125, 0.937012
8300, 0.00497643, -11, 2, 2, -1, -0.319336, -0.31543, 0.939941
8301, 0.00486537, -11, -4, -15, -4, -0.319336, -0.31543, 0.939941
8302, 0.00504094, -45, -3, -6, -2, -0.319336, -0.31543, 0.939941
8303, 0.00502811, -45, -3, -6, -2, -0.33252, -0.348633, 0.965332
8304, 0.0050468, -45, -3, -6, -2, -0.33252, -0.348633, 0.965332
8305, 0.00500209, 2, 0, -8, 0, -0.33252, -0.348633, 0.965332
8306, 0.005049, -10, 6, 27, 1, -0.33252, -0.348633, 0.965332
8307, 0.00496543, -10, 6, 27, 1, -0.33252, -0.348633, 0.965332
8308, 0.0049801, -2, -2, 8, 1, -0.342285, -0.366211, 0.969727
8309, 0.00498963, -2, -2, 8, 1, -0.342285, -0.366211, 0.969727
8310, 0.00494784, -2, -2, 8, 1, -0.342285, -0.366211, 0.969727
8311, 0.00500649, 11, -2, -9, -1, -0.342285, -0.366211, 0.969727
8312, 0.0050457, 11, -2, -9, -1, -0.343262, -0.365723, 0.972656
8313, 0.00501785, 8, 3, 2, -1, -0.343262, -0.365723, 0.972656
8314, 0.00499072, 11, -10, 5, 2, -0.343262, -0.365723, 0.972656
8315, 0.00491155, 11, -10, 5, 2, -0.333008, -0.343262, 0.950195
8316, 0.00510069, 11, -10, 5, 2, -0.333008, -0.343262, 0.950195
8317, 0.00502115, -6, -7, -7, -5, -0.333008, -0.343262, 0.950195
8318, 0.00496433, -9, -5, -2, 0, -0.333008, -0.343262, 0.950195
8319, 0.00498046, -9, -5, -2, 0, -0.333008, -0.343262, 0.950195
8320, 0.00507466, -42, 0, 0, -2, -0.328613, -0.334961, 0.943848
8321, 0.00496214, -42, 0, 0, -2, -0.328613, -0.334961, 0.943848
8322, 0.00500905, -42, 0, 0, -2, -0.328613, -0.334961, 0.943848
8323, 0.00497753, 1, 7, 13, 1, -0.328613, -0.334961, 0.943848
8324, 0.00499806, 1, 7, 13, 1, -0.337402, -0.353516, 0.947754
8325, 0.00503031, -9, 0, -15, -2, -0.337402, -0.353516, 0.947754
8326, 0.00504387, -5, 3, -3, -1, -0.337402, -0.353516, 0.947754
8327, 0.00495297, -5, 3, -3, -1, -0.339355, -0.371094, 0.956055
8328, 0.00499659, -5, 3, -3, -1, -0.339355, -0.371094, 0.956055
8329, 0.00492915, -5, 3, -3, -1, -0.339355, -0.371094, 0.956055
8330, 0.0050688, 15, 1, 1, -1, -0.339355, -0.371094, 0.956055
8331, 0.00502481, 8, 1, -15, -7, -0.339355, -0.371094, 0.956055
8332, 0.0049581, 5, -1, 4, 0, -0.328125, -0.336426, 0.954102
8333, 0.00503508, 5, -1, 4, 0, -0.328125, -0.336426, 0.954102
8334, 0.00495517, 5, -1, 4, 0, -0.328125, -0.336426, 0.954102
8335, 0.00495114, -17, -2, -25, -4, -0.328125, -0.336426, 0.954102
8336, 0.00516153, 5, 0, 7, 3, -0.327637, -0.324219, 0.948242
8337, 0.00554236, 10, 0, 7, 0, -0.327637, -0.324219, 0.948242
8338, 0.00435112, 46, 2, -2, -1, -0.327637, -0.324219, 0.948242
8339, 0.00501931, 46, 2, -2, -1, -0.332031, -0.34375, 0.935059
8340, 0.00499439, 46, 2, -2, -1, -0.332031, -0.34375, 0.935059
8341, 0.00498889, -3, 2, -34, -6, -0.332031, -0.34375, 0.935059
8342, 0.00498963, -7, 1, 13, -1, -0.332031, -0.34375, 0.935059
8343, 0.00502921, -7, 1, 13, -1, -0.332031, -0.34375, 0.935059
8344, 0.00502665, 10, -2, 16, 2, -0.333984, -0.350098, 0.953125
8345, 0.00491045, 10, -2, 16, 2, -0.333984, -0.350098, 0.953125
8346, 0.00512268, 10, -2, 16, 2, -0.333984, -0.350098, 0.953125
8347, 0.00492548, -5, -3, -17, -4, -0.333984, -0.350098, 0.953125
8348, 0.00501638, -5, -3, -17, -4, -0.329102, -0.339355, 0.949219
8349, 0.00489249, -24, -2, 19, 5, -0.329102, -0.339355, 0.949219
8350, 0.00517692, -32, -1, -2, -5, -0.329102, -0.339355, 0.949219
8351, 0.00496507, -32, -1, -2, -5, -0.333496, -0.314941, 0.9375
8352, 0.00504021, -32, -1, -2, -5, -0.333496, -0.314941, 0.9375
8353, 0.00503398, -5, 0, -10, -3, -0.333496, -0.314941, 0.9375
8354, 0.0048859, -5, -7, -39, -2, -0.333496, -0.314941, 0.9375
8355, 0.00491888, -5, -7, -39, -2, -0.333496, -0.314941, 0.9375
8356, 0.00506733, 18, 0, -5, 2, -0.327148, -0.318848, 0.930176
8357, 0.00501235, 18, 0, -5, 2, -0.327148, -0.318848, 0.930176
8358, 0.0049658, 18, 0, -5, 2, -0.327148, -0.318848, 0.930176
8359, 0.00503031, -27, 0, 3, 1, -0.327148, -0.318848, 0.930176
8360, 0.00500465, -27, 0, 3, 1, -0.333008, -0.333496, 0.938477
8361, 0.00500575, -3, -2, -4, -1, -0.333008, -0.333496, 0.938477
8362, 0.00497826, 16, 0, 9, 0, -0.333008, -0.333496, 0.938477
8363, 0.00509079, 16, 0, 9, 0, -0.330078, -0.348145, 0.949707
8364, 0.00492072, 16, 0, 9, 0, -0.330078, -0.348145, 0.949707
8365, 0.00503068, 2, 0, 16, 1, -0.330078, -0.348145, 0.949707
8366, 0.00499256, 17, 2, 35, 6, -0.330078, -0.348145, 0.949707
8367, 0.00500355, 17, 2, 35, 6, -0.330078, -0.348145, 0.949707
8368, 0.00496617, 5, -2, 0, -2, -0.338379, -0.345703, 0.949219
8369, 0.00494967, 5, -2, 0, -2, -0.338379, -0.345703, 0.949219
8370, 0.00512561, 5, -2, 0, -2, -0.338379, -0.345703, 0.949219
8371, 0.00492108, 22, -3, 19, 5, -0.338379, -0.345703, 0.949219
8372, 0.00502774, 22, -3, 19, 5, -0.332031, -0.317383, 0.946777
8373, 0.00502188, -11, -5, -1, 1, -0.332031, -0.317383, 0.946777
8374, 0.00498303, -4, -4, 6, 1, -0.332031, -0.317383, 0.946777
8375, 0.00503764, -4, -4, 6, 1, -0.329102, -0.316406, 0.944336
8376, 0.00494308, -4, -4, 6, 1, -0.329102, -0.316406, 0.944336
8377, 0.00490312, -1, -2, 10, 0, -0.329102, -0.316406, 0.944336
8378, 0.00507503, -6, 2, -5, 0, -0.329102, -0.316406, 0.944336
8379, 0.00495517, -6, 2, -5, 0, -0.329102, -0.316406, 0.944336
8380, 0.00509006, 6, 0, 4, -2, -0.328613, -0.335449, 0.952637
8381, 0.00650891, 6, 0, 4, -2, -0.328613, -0.335449, 0.952637
8382, 0.00448747, 6, 0, 4, -2, -0.328613, -0.335449, 0.952637
8383, 0.00487014, -1, 3, -21, -5, -0.328613, -0.335449, 0.952637
8384, 0.00513551, 8, 1, 7, 1, -0.327148, -0.344727, 0.950195
8385, 0.0048694, 11, 0, 6, 1, -0.327148, -0.344727, 0.950195
8386, 0.00517326, -5, 0, -12, -4, -0.327148, -0.344727, 0.950195
8387, 0.00498339, -5, 0, -12, -4, -0.327148, -0.32666, 0.957031
8388, 0.00499696, -5, 0, -12, -4, -0.327148, -0.32666, 0.957031
8389, 0.00487233, -3, -5, -4, 0, -0.327148, -0.32666, 0.957031
8390, 0.00516336, 4, -2, 27, 5, -0.327148, -0.32666, 0.957031
8391, 0.00494564, 4, -2, 27, 5, -0.327148, -0.32666, 0.957031
8392, 0.00500465, -32, -1, -21, -4, -0.328613, -0.318848, 0.953125
8393, 0.00499769, -32, -1, -21, -4, -0.328613, -0.318848, 0.953125
8394, 0.00498523, -32, -1, -21, -4, -0.328613, -0.318848, 0.953125
8395, 0.00493794, -2, 0, -4, -1, -0.328613, -0.318848, 0.953125
8396, 0.00511681, 6, -3, -13, -3, -0.330078, -0.328125, 0.946289
8397, 0.00494088, 6, -3, -13, -3, -0.330078, -0.328125, 0.946289
8398, 0.00502151, -9, -1, -35, -7, -0.330078, -0.328125, 0.946289
8399, 0.00500429, -9, -1, -35, -7, -0.329102, -0.337402, 0.946289
8400, 0.00501272, -9, -1, -35, -7, -0.329102, -0.337402, 0.946289
8401, 0.0049746, 8, 4, 4, -1, -0.329102, -0.337402, 0.946289
8402, 0.00495224, 9, 0, -3, 0, -0.329102, -0.337402, 0.946289
8403, 0.00516116, 9, 0, -3, 0, -0.329102, -0.337402, 0.946289
8404, 0.00491009, 5, 3, 12, 1, -0.332031, -0.338379, 0.949707
8405, 0.00488553, 5, 3, 12, 1, -0.332031, -0.338379, 0.949707
8406, 0.00510325, 5, 3, 12, 1, -0.332031, -0.338379, 0.949707
8407, 0.00496873, -14, -2, -7, -6, -0.332031, -0.338379, 0.949707
8408, 0.00502884, 9, -8, 1, -1, -0.327148, -0.313965, 0.943848
8409, 0.00495077, 9, -8, 1, -1, -0.327148, -0.313965, 0.943848
8410, 0.00502555, 9, -6, -12, -4, -0.327148, -0.313965, 0.943848
8411, 0.00499072, 9, -6, -12, -4, -0.329102, -0.329102, 0.953125
8412, 0.00499696, 9, -6, -12, -4, -0.329102, -0.329102, 0.953125
8413, 0.00494198, -34, 3, 1, 2, -0.329102, -0.329102, 0.953125
8414, 0.00505084, -34, 3, 1, 2, -0.329102, -0.329102, 0.953125
8415, 0.005152, -34, 3, 1, 2, -0.329102, -0.329102, 0.953125
8416, 0.00492475, 9, 3, 9, 2, -0.329102, -0.34082, 0.950195
8417, 0.0049658, 9, 3, 9, 2, -0.329102, -0.34082, 0.950195
8418, 0.00499696, 9, 3, 9, 2, -0.329102, -0.34082, 0.950195
8419, 0.00501785, -9, -4, -22, -6, -0.329102, -0.34082, 0.950195
8420, 0.00500685, 21, -3, 2, -1, -0.33252, -0.333496, 0.948242
8421, 0.00494637, 21, -3, 2, -1, -0.33252, -0.333496, 0.948242
8422, 0.00503398, 10, -3, 17, 1, -0.33252, -0.333496, 0.948242
8423, 0.0049658, 10, -3, 17, 1, -0.325684, -0.322266, 0.951172
8424, 0.00504717, 10, -3, 17, 1, -0.325684, -0.322266, 0.951172
8425, 0.00488076, 2, 0, -11, -3, -0.325684, -0.322266, 0.951172
8426, 0.00513844, -9, 1, 16, 5, -0.325684, -0.322266, 0.951172
8427, 0.00494967, -9, 1, 16, 5, -0.325684, -0.322266, 0.951172
8428, 0.00503471, 11, -3, 1, -1, -0.330566, -0.316406, 0.950195
8429, 0.0050534, 11, -3, 1, -1, -0.330566, -0.316406, 0.950195
8430, 0.00495114, 11, -3, 1, -1, -0.330566, -0.316406, 0.950195
8431, 0.0049757, -4, 1, 6, 2, -0.330566, -0.316406, 0.950195
8432, 0.00503874, -43, 0, -25, -1, -0.32373, -0.317383, 0.955566
8433, 0.00494637, -43, 0, -25, -1, -0.32373, -0.317383, 0.955566
8434, 0.00500649, 4, -1, 12, 0, -0.32373, -0.317383, 0.955566
8435, 0.00491449, 4, -1, 12, 0, -0.32666, -0.332031, 0.938477
8436, 0.00513807, 4, -1, 12, 0, -0.32666, -0.332031, 0.938477
8437, 0.00492658, 4, 3, 18, 3, -0.32666, -0.332031, 0.938477
8438, 0.00504021, 6, 1, 10, 0, -0.32666, -0.332031, 0.938477
8439, 0.00501675, 6, 1, 10, 0, -0.32666, -0.332031, 0.938477
8440, 0.00498486, 0, 0, 3, -7, -0.328125, -0.33252, 0.95166
8441, 0.00494637, 0, 0, 3, -7, -0.328125, -0.33252, 0.95166
8442, 0.00503581, 0, 0, 3, -7, -0.328125, -0.33252, 0.95166
8443, 0.00497496, 11, 0, 5, 0, -0.328125, -0.33252, 0.95166
8444, 0.00502628, 11, 0, 5, 0, -0.328125, -0.33252, 0.95166
8445, 0.00489689, -5, -2, 5, 3, -0.327148, -0.329102, 0.949707
8446, 0.00517216, 4, -2, -1, 1, -0.327148, -0.329102, 0.949707
8447, 0.00494491, 4, -2, -1, 1, -0.327148, -0.331543, 0.952148
8448, 0.00499696, 4, -2, -1, 1, -0.327148, -0.331543, 0.952148
8449, 0.00488773, 9, -1, 10, 2, -0.327148, -0.331543, 0.952148
8450, 0.0051641, -8, -1, -15, -3, -0.327148, -0.331543, 0.952148
8451, 0.00499439, -8, -1, -15, -3, -0.327148, -0.331543, 0.952148
8452, 0.00493098, -8, -1, -15, -3, -0.321777, -0.331543, 0.944824
8453, 0.00503618, 24, 0, -11, -5, -0.321777, -0.331543, 0.944824
8454, 0.00501088, 24, 0, -11, -5, -0.321777, -0.331543, 0.944824
8455, 0.00492512, -1, 0, -7, -1, -0.321777, -0.331543, 0.944824
8456, 0.00506073, 0, -5, -9, -1, -0.320801, -0.328125, 0.951172
8457, 0.0049647, 0, -5, -9, -1, -0.320801, -0.328125, 0.951172
8458, 0.00500978, 0, -5, -9, -1, -0.320801, -0.328125, 0.951172
8459, 0.00503984, 30, 1, -8, -1, -0.320312, -0.331543, 0.945801
8460, 0.00498303, 30, 1, -8, -1, -0.320312, -0.331543, 0.945801
8461, 0.004968, 4, 0, -1, 1, -0.320312, -0.331543, 0.945801
8462, 0.00497753, -9, -1, 4, -1, -0.320312, -0.331543, 0.945801
8463, 0.00507943, -9, -1, 4, -1, -0.320312, -0.331543, 0.945801
8464, 0.00498486, -9, -1, 4, -1, -0.317383, -0.335938, 0.95166
8465, 0.00499292, 2, -1, 3, -1, -0.317383, -0.335938, 0.95166
8466, 0.00501272, 2, -1, 3, -1, -0.317383, -0.335938, 0.95166
8467, 0.00495224, -6, 2, 12, 4, -0.317383, -0.335938, 0.95166
8468, 0.00503471, -11, -5, -7, -3, -0.326172, -0.338379, 0.951172
8469, 0.00488883, -11, -5, -7, -3, -0.326172, -0.338379, 0.951172
8470, 0.0051597, -11, -5, -7, -3, -0.326172, -0.338379, 0.951172
8471, 0.00490312, -26, 0, -2, -1, -0.328613, -0.338379, 0.958496
8472, 0.0050545, -26, 0, -2, -1, -0.328613, -0.338379, 0.958496
8473, 0.00493391, -15, 1, -23, -3, -0.328613, -0.338379, 0.958496
8474, 0.00508126, -8, -1, -32, -8, -0.328613, -0.338379, 0.958496
8475, 0.00492731, -8, -1, -32, -8, -0.328613, -0.338379, 0.958496
8476, 0.00504131, -8, -1, -32, -8, -0.321289, -0.344727, 0.955566
8477, 0.00493574, 6, 0, 22, 2, -0.321289, -0.344727, 0.955566
8478, 0.00506183, 6, 0, 22, 2, -0.321289, -0.344727, 0.955566
8479, 0.004968, -2, -6, -7, -1, -0.321289, -0.344727, 0.955566
8480, 0.00508859, 13, 0, 6, 0, -0.317383, -0.337891, 0.954102
8481, 0.00494271, 13, 0, 6, 0, -0.317383, -0.337891, 0.954102
8482, 0.00501418, 13, 0, 6, 0, -0.317383, -0.337891, 0.954102
8483, 0.00501308, 5, 0, -2, 1, -0.324219, -0.32666, 0.95166
8484, 0.0049724, 5, 0, -2, 1, -0.324219, -0.32666, 0.95166
8485, 0.00492658, -4, 0, -48, -12, -0.324219, -0.32666, 0.95166
8486, 0.00510142, 0, 0, 10, 0, -0.324219, -0.32666, 0.95166
8487, 0.00498303, 0, 0, 10, 0, -0.324219, -0.32666, 0.95166
8488, 0.00498963, 0, 0, 10, 0, -0.324219, -0.335449, 0.95459
8489, 0.00490752, -7, -1, -9, -1, -0.324219, -0.335449, 0.95459
8490, 0.00511718, -7, -1, -9, -1, -0.324219, -0.335449, 0.95459
8491, 0.00496104, 24, 3, 1, 0, -0.324219, -0.335449, 0.95459
8492, 0.00500392, 2, -1, 20, 3, -0.318848, -0.347168, 0.966797
8493, 0.00499659, 2, -1, 20, 3, -0.318848, -0.347168, 0.966797
8494, 0.00503434, 2, -1, 20, 3, -0.318848, -0.347168, 0.966797
8495, 0.00489433, -5, -5, 24, 5, -0.319824, -0.333496, 0.959961
8496, 0.00511278, -5, -5, 24, 5, -0.319824, -0.333496, 0.959961
8497, 0.00495224, -16, 0, -41, -7, -0.319824, -0.333496, 0.959961
8498, 0.00500685, -4, 0, 17, 1, -0.319824, -0.333496, 0.959961
8499, 0.00502261, -4, 0, 17, 1, -0.319824, -0.333496, 0.959961
8500, 0.00501052, -4, 0, 17, 1, -0.321777, -0.338379, 0.957031
8501, 0.00499476, -6, -3, -5, 0, -0.321777, -0.338379, 0.957031
8502, 0.00494857, -6, -3, -5, 0, -0.321777, -0.338379, 0.957031
8503, 0.00506696, -6, 1, -17, -5, -0.321777, -0.338379, 0.957031
8504, 0.00498303, -1, 4, 22, 3, -0.321289, -0.331543, 0.952637
8505, 0.00492841, -1, 4, 22, 3, -0.321289, -0.331543, 0.952637
8506, 0.00502261, -1, 4, 22, 3, -0.321289, -0.331543, 0.952637
8507, 0.00506257, 1, 0, 14, 3, -0.322266, -0.335938, 0.964355
8508, 0.00500869, 1, 0, 14, 3, -0.322266, -0.335938, 0.964355
8509, 0.00493684, -14, 2, -1, 0, -0.322266, -0.335938, 0.964355
8510, 0.00502921, -12, 2, -34, -6, -0.322266, -0.335938, 0.964355
8511, 0.00487087, -12, 2, -34, -6, -0.322266, -0.335938, 0.964355
8512, 0.00530265, -12, 2, -34, -6, -0.319824, -0.339844, 0.961914
8513, 0.00495261, -3, -6, -4, -2, -0.319824, -0.339844, 0.961914
8514, 0.00491119, -3, -6, -4, -2, -0.319824, -0.339844, 0.961914
8515, 0.00497386, -5, -3, 9, 0, -0.319824, -0.339844, 0.961914
8516, 0.00507906, 6, -3, 20, 2, -0.3125, -0.320312, 0.947266
8517, 0.00491302, 6, -3, 20, 2, -0.3125, -0.320312, 0.947266
8518, 0.00500942, 6, -3, 20, 2, -0.3125, -0.320312, 0.947266
8519, 0.00502115, 4, 0, -6, -1, -0.3125, -0.320312, 0.947266
8520, 0.00489506, 4, 0, -6, -1, -0.3125, -0.320312, 0.947266
8521, 0.00508456, 12, 2, 16, 4, -0.317871, -0.322754, 0.951172
8522, 0.00501785, 0, -3, 29, 4, -0.317871, -0.322754, 0.951172
8523, 0.00502371, 0, -3, 29, 4, -0.317871, -0.322754, 0.951172
8524, 0.00494271, 0, -3, 29, 4, -0.322266, -0.335449, 0.955566
8525, 0.00502994, 0, -1, 13, 0, -0.322266, -0.335449, 0.955566
8526, 0.0057971, -6, 4, -11, -6, -0.322266, -0.335449, 0.955566
8527, 0.00537192, -6, 4, -11, -6, -0.322266, -0.335449, 0.955566
8528, 0.00469347, 6, -1, -7, -5, -0.323242, -0.338867, 0.958984
8529, 0.00524107, 6, -1, -7, -5, -0.323242, -0.338867, 0.958984
8530, 0.0048639, 6, -1, -7, -5, -0.323242, -0.338867, 0.958984
8531, 0.00501162, -9, -2, -1, -1, -0.323242, -0.338867, 0.958984
8532, 0.00498413, -9, -2, -1, -1, -0.323242, -0.338867, 0.958984
8533, 0.00499219, -6, -6, -15, -2, -0.317383, -0.323242, 0.948242
8534, 0.00504827, 3, -1, 1, -1, -0.317383, -0.323242, 0.948242
8535, 0.00490459, 3, -1, 1, -1, -0.320801, -0.316895, 0.95459
8536, 0.00505084, 3, -1, 1, -1, -0.320801, -0.316895, 0.95459
8537, 0.00500319, -5, -1, 15, 2, -0.320801, -0.316895, 0.95459
8538, 0.00503837, -2, -2, -14, -1, -0.320801, -0.316895, 0.95459
8539, 0.004968, -2, -2, -14, -1, -0.320801, -0.316895, 0.95459
8540, 0.00496323, 2, 5, 1, 0, -0.322266, -0.330566, 0.95459
8541, 0.00501931, 2, 5, 1, 0, -0.322266, -0.330566, 0.95459
8542, 0.00499182, 2, 5, 1, 0, -0.322266, -0.330566, 0.95459
8543, 0.00499952, -4, -1, -8, 1, -0.322266, -0.330566, 0.95459
8544, 0.00504241, -4, -1, -8, 1, -0.322266, -0.330566, 0.95459
8545, 0.00499476, -4, -1, -4, -4, -0.324707, -0.335449, 0.95459
8546, 0.0050468, 8, 0, 10, 0, -0.324707, -0.335449, 0.95459
8547, 0.00496763, 8, 0, 10, 0, -0.324219, -0.329102, 0.95752
8548, 0.00497313, 8, 0, 10, 0, -0.324219, -0.329102, 0.95752
8549, 0.00498816, 22, -2, 6, 1, -0.324219, -0.329102, 0.95752
8550, 0.00503471, 11, -4, -20, -4, -0.324219, -0.329102, 0.95752
8551, 0.00500355, 11, -4, -20, -4, -0.324219, -0.329102, 0.95752
8552, 0.00501455, -3, -5, -12, 0, -0.318359, -0.313965, 0.947266
